thisN,thisTrialN,thisRepN,mouse.x,mouse.y,mouse.leftButton,mouse.midButton,mouse.rightButton,mouse.time,mouse.clicked_name,trials.thisRepN,trials.thisTrialN,trials.thisN,trials.thisIndex,thisRow.t,notes,num_distr,trial.started,Fixation.started,target.started,mouse.started,trial.stopped,trials.mouse.x,trials.mouse.y,trials.mouse.leftButton,trials.mouse.midButton,trials.mouse.rightButton,trials.mouse.time,trials.mouse.clicked_name,participant,session,date,expName,expVersion,psychopyVersion,frameRate,expStart,
0,0,0,[np.float64(0.17407407407407408)],[np.float64(0.1962962962962963)],[0],[0],[1],[6.827826900000218],['target'],0,0,0,0,0.06118879999849014,,10,0.04370720000588335,0.06118879999849014,0.06118879999849014,0.04373080001096241,6.871681800024817,[np.float64(0.17407407407407408)],[np.float64(0.1962962962962963)],[0],[0],[1],[6.827826900000218],['target'],001,001,2025-09-30_19h38.22.326,Visual Search,,2025.1.1,60.01925417312558,2025-09-30 19h38.35.536075 +0530,
1,0,1,"[np.float64(0.17407407407407408), np.float64(-0.40925925925925927)]","[np.float64(0.1962962962962963), np.float64(-0.3768518518518518)]","[0, 0]","[0, 0]","[1, 1]","[0.0009332000045105815, 1.8357145999907516]","[None, 'target']",1,0,1,0,6.9322896000230685,,10,6.917306200019084,6.9322896000230685,6.9322896000230685,0.04518929999903776,8.753087800025241,"[np.float64(0.17407407407407408), np.float64(-0.40925925925925927)]","[np.float64(0.1962962962962963), np.float64(-0.3768518518518518)]","[0, 0]","[0, 0]","[1, 1]","[0.0009332000045105815, 1.8357145999907516]","[None, 'target']",001,001,2025-09-30_19h38.22.326,Visual Search,,2025.1.1,60.01925417312558,2025-09-30 19h38.35.536075 +0530,
2,0,2,"[np.float64(-0.40925925925925927), np.float64(0.1388888888888889)]","[np.float64(-0.3768518518518518), np.float64(0.1787037037037037)]","[0, 0]","[0, 0]","[1, 1]","[0.0006298000225797296, 1.4011119000206236]","[None, 'target']",2,0,2,0,8.777363500004867,,5,8.76941710000392,8.777363500004867,8.777363500004867,0.01604419999057427,10.170762100024149,"[np.float64(-0.40925925925925927), np.float64(0.1388888888888889)]","[np.float64(-0.3768518518518518), np.float64(0.1787037037037037)]","[0, 0]","[0, 0]","[1, 1]","[0.0006298000225797296, 1.4011119000206236]","[None, 'target']",001,001,2025-09-30_19h38.22.326,Visual Search,,2025.1.1,60.01925417312558,2025-09-30 19h38.35.536075 +0530,
3,0,3,"[np.float64(0.1388888888888889), np.float64(-0.025925925925925925)]","[np.float64(0.1787037037037037), np.float64(-0.38981481481481484)]","[0, 0]","[0, 0]","[1, 1]","[0.0011600999860092998, 3.136118099995656]","[None, 'target']",3,0,3,0,10.213683800015133,,5,10.20159209999838,10.213683800015133,10.213683800015133,0.03017010001349263,13.337953300011577,"[np.float64(0.1388888888888889), np.float64(-0.025925925925925925)]","[np.float64(0.1787037037037037), np.float64(-0.38981481481481484)]","[0, 0]","[0, 0]","[1, 1]","[0.0011600999860092998, 3.136118099995656]","[None, 'target']",001,001,2025-09-30_19h38.22.326,Visual Search,,2025.1.1,60.01925417312558,2025-09-30 19h38.35.536075 +0530,
4,0,4,"[np.float64(-0.025925925925925925), np.float64(-0.12777777777777777)]","[np.float64(-0.38981481481481484), np.float64(-0.007407407407407408)]","[0, 0]","[0, 0]","[1, 1]","[0.0005521999846678227, 1.5615256000019144]","[None, 'target']",4,0,4,0,13.40356370000518,,10,13.390818600018974,13.40356370000518,13.40356370000518,0.05219840002246201,14.952484800014645,"[np.float64(-0.025925925925925925), np.float64(-0.12777777777777777)]","[np.float64(-0.38981481481481484), np.float64(-0.007407407407407408)]","[0, 0]","[0, 0]","[1, 1]","[0.0005521999846678227, 1.5615256000019144]","[None, 'target']",001,001,2025-09-30_19h38.22.326,Visual Search,,2025.1.1,60.01925417312558,2025-09-30 19h38.35.536075 +0530,
5,0,5,"[np.float64(-0.12777777777777777), np.float64(-0.34814814814814815)]","[np.float64(-0.007407407407407408), np.float64(-0.38425925925925924)]","[0, 0]","[0, 0]","[1, 1]","[0.0006117000011727214, 1.9605788000044413]","[None, 'target']",5,0,5,0,15.007825500011677,,10,14.994345900020562,15.007825500011677,15.007825500011677,0.041470799973467365,16.955148600012762,"[np.float64(-0.12777777777777777), np.float64(-0.34814814814814815)]","[np.float64(-0.007407407407407408), np.float64(-0.38425925925925924)]","[0, 0]","[0, 0]","[1, 1]","[0.0006117000011727214, 1.9605788000044413]","[None, 'target']",001,001,2025-09-30_19h38.22.326,Visual Search,,2025.1.1,60.01925417312558,2025-09-30 19h38.35.536075 +0530,
6,0,6,[np.float64(-0.3074074074074074)],[np.float64(-0.03148148148148148)],[0],[0],[1],[3.2134697000146843],['target'],6,0,6,0,17.075671400001738,,10,17.059139500022866,17.075671400001738,17.075671400001738,0.10302169999340549,20.27306010000757,[np.float64(-0.3074074074074074)],[np.float64(-0.03148148148148148)],[0],[0],[1],[3.2134697000146843],['target'],001,001,2025-09-30_19h38.22.326,Visual Search,,2025.1.1,60.01925417312558,2025-09-30 19h38.35.536075 +0530,
7,0,7,[np.float64(0.4444444444444444)],[np.float64(0.23425925925925925)],[0],[0],[1],[2.937190599972382],['target'],7,0,7,0,20.347122000006493,,10,20.332436199998483,20.347122000006493,20.347122000006493,0.05806089998804964,23.269744200020796,[np.float64(0.4444444444444444)],[np.float64(0.23425925925925925)],[0],[0],[1],[2.937190599972382],['target'],001,001,2025-09-30_19h38.22.326,Visual Search,,2025.1.1,60.01925417312558,2025-09-30 19h38.35.536075 +0530,
8,0,8,"[np.float64(0.014814814814814815), np.float64(-0.044444444444444446)]","[np.float64(-0.02962962962962963), np.float64(0.16944444444444445)]","[0, 0]","[0, 0]","[1, 1]","[2.659078700002283, 4.5877296999969985]","[None, 'target']",8,0,8,0,23.312079000024823,,10,23.29729740001494,23.312079000024823,23.312079000024823,0.0271636999968905,27.88525690001552,"[np.float64(0.014814814814814815), np.float64(-0.044444444444444446)]","[np.float64(-0.02962962962962963), np.float64(0.16944444444444445)]","[0, 0]","[0, 0]","[1, 1]","[2.659078700002283, 4.5877296999969985]","[None, 'target']",001,001,2025-09-30_19h38.22.326,Visual Search,,2025.1.1,60.01925417312558,2025-09-30 19h38.35.536075 +0530,
9,0,9,"[np.float64(-0.044444444444444446), np.float64(0.2833333333333333)]","[np.float64(0.16944444444444445), np.float64(-0.2962962962962963)]","[0, 0]","[0, 0]","[1, 1]","[0.0006091000104788691, 1.8517902000166941]","[None, 'target']",9,0,9,0,27.92528170000878,,5,27.916083100019023,27.92528170000878,27.92528170000878,0.0299681999895256,29.768115800019586,"[np.float64(-0.044444444444444446), np.float64(0.2833333333333333)]","[np.float64(0.16944444444444445), np.float64(-0.2962962962962963)]","[0, 0]","[0, 0]","[1, 1]","[0.0006091000104788691, 1.8517902000166941]","[None, 'target']",001,001,2025-09-30_19h38.22.326,Visual Search,,2025.1.1,60.01925417312558,2025-09-30 19h38.35.536075 +0530,
10,0,10,"[np.float64(0.2833333333333333), np.float64(-0.4601851851851852), np.float64(-0.43333333333333335)]","[np.float64(-0.2962962962962963), np.float64(-0.13055555555555556), np.float64(-0.1675925925925926)]","[0, 0, 0]","[0, 0, 0]","[1, 1, 1]","[0.0007379000016953796, 2.374334199994337, 3.4081690999737475]","[None, None, 'target']",10,0,10,0,29.843293800018728,,10,29.82590700002038,29.843293800018728,29.843293800018728,0.05738800001563504,33.23415840000962,"[np.float64(0.2833333333333333), np.float64(-0.4601851851851852), np.float64(-0.43333333333333335)]","[np.float64(-0.2962962962962963), np.float64(-0.13055555555555556), np.float64(-0.1675925925925926)]","[0, 0, 0]","[0, 0, 0]","[1, 1, 1]","[0.0007379000016953796, 2.374334199994337, 3.4081690999737475]","[None, None, 'target']",001,001,2025-09-30_19h38.22.326,Visual Search,,2025.1.1,60.01925417312558,2025-09-30 19h38.35.536075 +0530,
11,0,11,[np.float64(-0.18333333333333332)],[np.float64(0.41759259259259257)],[0],[0],[1],[2.1981189000071026],['target'],11,0,11,0,33.26215170000796,,5,33.25290020002285,33.26215170000796,33.26215170000796,0.018199200014350936,35.4512420000101,[np.float64(-0.18333333333333332)],[np.float64(0.41759259259259257)],[0],[0],[1],[2.1981189000071026],['target'],001,001,2025-09-30_19h38.22.326,Visual Search,,2025.1.1,60.01925417312558,2025-09-30 19h38.35.536075 +0530,
12,0,12,"[np.float64(-0.18333333333333332), np.float64(0.013888888888888888)]","[np.float64(0.41759259259259257), np.float64(0.03425925925925926)]","[0, 0]","[0, 0]","[1, 1]","[0.0005994000239297748, 1.5107835000089835]","[None, 'target']",12,0,12,0,35.510205600003246,,10,35.493630100012524,35.510205600003246,35.510205600003246,0.041817299992544577,37.004818200017326,"[np.float64(-0.18333333333333332), np.float64(0.013888888888888888)]","[np.float64(0.41759259259259257), np.float64(0.03425925925925926)]","[0, 0]","[0, 0]","[1, 1]","[0.0005994000239297748, 1.5107835000089835]","[None, 'target']",001,001,2025-09-30_19h38.22.326,Visual Search,,2025.1.1,60.01925417312558,2025-09-30 19h38.35.536075 +0530,
13,0,13,[np.float64(-0.06574074074074074)],[np.float64(0.34444444444444444)],[0],[0],[1],[1.7702796999947168],['target'],13,0,13,0,37.08229120000033,,10,37.06728440002189,37.08229120000033,37.08229120000033,0.06104500000947155,38.83798330000718,[np.float64(-0.06574074074074074)],[np.float64(0.34444444444444444)],[0],[0],[1],[1.7702796999947168],['target'],001,001,2025-09-30_19h38.22.326,Visual Search,,2025.1.1,60.01925417312558,2025-09-30 19h38.35.536075 +0530,
14,0,14,[np.float64(-0.20833333333333334)],[np.float64(0.10648148148148148)],[0],[0],[1],[3.1860428000218235],['target'],14,0,14,0,38.912485500011826,,10,38.89721030002693,38.912485500011826,38.912485500011826,0.057977499993285164,42.083515300008,[np.float64(-0.20833333333333334)],[np.float64(0.10648148148148148)],[0],[0],[1],[3.1860428000218235],['target'],001,001,2025-09-30_19h38.22.326,Visual Search,,2025.1.1,60.01925417312558,2025-09-30 19h38.35.536075 +0530,
15,0,15,"[np.float64(-0.20833333333333334), np.float64(0.2796296296296296)]","[np.float64(0.10648148148148148), np.float64(0.21388888888888888)]","[0, 0]","[0, 0]","[1, 1]","[0.0007385000062640756, 3.147110199992312]","[None, 'target']",15,0,15,0,42.111893000022974,,5,42.10203170002205,42.111893000022974,42.111893000022974,0.01832880001165904,45.24922660001903,"[np.float64(-0.20833333333333334), np.float64(0.2796296296296296)]","[np.float64(0.10648148148148148), np.float64(0.21388888888888888)]","[0, 0]","[0, 0]","[1, 1]","[0.0007385000062640756, 3.147110199992312]","[None, 'target']",001,001,2025-09-30_19h38.22.326,Visual Search,,2025.1.1,60.01925417312558,2025-09-30 19h38.35.536075 +0530,
16,0,16,"[np.float64(0.2796296296296296), np.float64(0.07222222222222222)]","[np.float64(0.21388888888888888), np.float64(-0.3851851851851852)]","[0, 0]","[0, 0]","[1, 1]","[0.0008495999791193753, 2.3960632999951486]","[None, 'target']",16,0,16,0,45.28274039999815,,5,45.27033610001672,45.28274039999815,45.28274039999815,0.02093639998929575,47.66656770001282,"[np.float64(0.2796296296296296), np.float64(0.07222222222222222)]","[np.float64(0.21388888888888888), np.float64(-0.3851851851851852)]","[0, 0]","[0, 0]","[1, 1]","[0.0008495999791193753, 2.3960632999951486]","[None, 'target']",001,001,2025-09-30_19h38.22.326,Visual Search,,2025.1.1,60.01925417312558,2025-09-30 19h38.35.536075 +0530,
17,0,17,"[np.float64(0.07222222222222222), np.float64(0.25925925925925924)]","[np.float64(-0.3851851851851852), np.float64(-0.14629629629629629)]","[0, 0]","[0, 0]","[1, 1]","[0.0010839000169653445, 2.7715600000228733]","[None, 'target']",17,0,17,0,47.70978910001577,,5,47.69588830001885,47.70978910001577,47.70978910001577,0.028970800020033494,50.467757100006565,"[np.float64(0.07222222222222222), np.float64(0.25925925925925924)]","[np.float64(-0.3851851851851852), np.float64(-0.14629629629629629)]","[0, 0]","[0, 0]","[1, 1]","[0.0010839000169653445, 2.7715600000228733]","[None, 'target']",001,001,2025-09-30_19h38.22.326,Visual Search,,2025.1.1,60.01925417312558,2025-09-30 19h38.35.536075 +0530,
18,0,18,"[np.float64(0.25925925925925924), np.float64(-0.45925925925925926)]","[np.float64(-0.14629629629629629), np.float64(-0.09814814814814815)]","[0, 0]","[0, 0]","[1, 1]","[0.0006093000120017678, 2.2480020000075456]","[None, 'target']",18,0,18,0,50.53516650001984,,10,50.517508000019006,50.53516650001984,50.53516650001984,0.04891219999990426,52.76562580000609,"[np.float64(0.25925925925925924), np.float64(-0.45925925925925926)]","[np.float64(-0.14629629629629629), np.float64(-0.09814814814814815)]","[0, 0]","[0, 0]","[1, 1]","[0.0006093000120017678, 2.2480020000075456]","[None, 'target']",001,001,2025-09-30_19h38.22.326,Visual Search,,2025.1.1,60.01925417312558,2025-09-30 19h38.35.536075 +0530,
19,0,19,"[np.float64(-0.45925925925925926), np.float64(0.375)]","[np.float64(-0.09814814814814815), np.float64(0.4888888888888889)]","[0, 0]","[0, 0]","[1, 1]","[0.0006071999960113317, 4.312004800012801]","[None, 'target']",19,0,19,0,52.7963102000067,,5,52.78662810000242,52.7963102000067,52.7963102000067,0.020572400011587888,57.098848300025566,"[np.float64(-0.45925925925925926), np.float64(0.375)]","[np.float64(-0.09814814814814815), np.float64(0.4888888888888889)]","[0, 0]","[0, 0]","[1, 1]","[0.0006071999960113317, 4.312004800012801]","[None, 'target']",001,001,2025-09-30_19h38.22.326,Visual Search,,2025.1.1,60.01925417312558,2025-09-30 19h38.35.536075 +0530,
20,0,20,"[np.float64(0.375), np.float64(0.1648148148148148)]","[np.float64(0.4888888888888889), np.float64(-0.04351851851851852)]","[0, 0]","[0, 0]","[1, 1]","[0.0008130999922286719, 1.6129591999924742]","[None, 'target']",20,0,20,0,57.147299900010694,,5,57.13607580002281,57.147299900010694,57.147299900010694,0.0367137000139337,58.74942540001939,"[np.float64(0.375), np.float64(0.1648148148148148)]","[np.float64(0.4888888888888889), np.float64(-0.04351851851851852)]","[0, 0]","[0, 0]","[1, 1]","[0.0008130999922286719, 1.6129591999924742]","[None, 'target']",001,001,2025-09-30_19h38.22.326,Visual Search,,2025.1.1,60.01925417312558,2025-09-30 19h38.35.536075 +0530,
21,0,21,[np.float64(0.3212962962962963)],[np.float64(-0.4777777777777778)],[0],[0],[1],[3.6361275000090245],['target'],21,0,21,0,58.829578800010495,,10,58.813875200023176,58.829578800010495,58.829578800010495,0.06329630000982434,62.450453000026755,[np.float64(0.3212962962962963)],[np.float64(-0.4777777777777778)],[0],[0],[1],[3.6361275000090245],['target'],001,001,2025-09-30_19h38.22.326,Visual Search,,2025.1.1,60.01925417312558,2025-09-30 19h38.35.536075 +0530,
22,0,22,"[np.float64(0.3212962962962963), np.float64(0.3990740740740741)]","[np.float64(-0.4777777777777778), np.float64(0.02962962962962963)]","[0, 0]","[0, 0]","[1, 1]","[0.0012833999935537577, 2.0907983999932185]","[None, 'target']",22,0,22,0,62.50513350000256,,5,62.490433300001314,62.50513350000256,62.50513350000256,0.03922810000949539,64.58141250000335,"[np.float64(0.3212962962962963), np.float64(0.3990740740740741)]","[np.float64(-0.4777777777777778), np.float64(0.02962962962962963)]","[0, 0]","[0, 0]","[1, 1]","[0.0012833999935537577, 2.0907983999932185]","[None, 'target']",001,001,2025-09-30_19h38.22.326,Visual Search,,2025.1.1,60.01925417312558,2025-09-30 19h38.35.536075 +0530,
23,0,23,"[np.float64(0.3990740740740741), np.float64(0.17592592592592593)]","[np.float64(0.02962962962962963), np.float64(0.24814814814814815)]","[0, 0]","[0, 0]","[1, 1]","[0.0008532999781891704, 2.1417421999794897]","[None, 'target']",23,0,23,0,64.63374370001839,,5,64.6217623000266,64.63374370001839,64.63374370001839,0.03971690000616945,66.76355400000466,"[np.float64(0.3990740740740741), np.float64(0.17592592592592593)]","[np.float64(0.02962962962962963), np.float64(0.24814814814814815)]","[0, 0]","[0, 0]","[1, 1]","[0.0008532999781891704, 2.1417421999794897]","[None, 'target']",001,001,2025-09-30_19h38.22.326,Visual Search,,2025.1.1,60.01925417312558,2025-09-30 19h38.35.536075 +0530,
24,0,24,"[np.float64(0.17592592592592593), np.float64(0.10648148148148148), np.float64(0.12037037037037036)]","[np.float64(0.24814814814814815), np.float64(0.33611111111111114), np.float64(0.337037037037037)]","[0, 0, 0]","[0, 0, 0]","[1, 1, 1]","[0.0006396000098902732, 1.7856292000215035, 3.0848336000053678]","[None, None, 'target']",24,0,24,0,66.8121145000041,,10,66.7951612000179,66.8121145000041,66.8121145000041,0.03147800001897849,69.88007270000526,"[np.float64(0.17592592592592593), np.float64(0.10648148148148148), np.float64(0.12037037037037036)]","[np.float64(0.24814814814814815), np.float64(0.33611111111111114), np.float64(0.337037037037037)]","[0, 0, 0]","[0, 0, 0]","[1, 1, 1]","[0.0006396000098902732, 1.7856292000215035, 3.0848336000053678]","[None, None, 'target']",001,001,2025-09-30_19h38.22.326,Visual Search,,2025.1.1,60.01925417312558,2025-09-30 19h38.35.536075 +0530,
25,0,25,[np.float64(0.35833333333333334)],[np.float64(0.13518518518518519)],[0],[0],[1],[2.4183436000021175],['target'],25,0,25,0,69.9055036000209,,5,69.89593290002085,69.9055036000209,69.9055036000209,0.015575900004478171,72.31442650000099,[np.float64(0.35833333333333334)],[np.float64(0.13518518518518519)],[0],[0],[1],[2.4183436000021175],['target'],001,001,2025-09-30_19h38.22.326,Visual Search,,2025.1.1,60.01925417312558,2025-09-30 19h38.35.536075 +0530,
26,0,26,"[np.float64(0.35833333333333334), np.float64(0.2462962962962963)]","[np.float64(0.13518518518518519), np.float64(-0.27870370370370373)]","[0, 0]","[0, 0]","[1, 1]","[0.0011014999763574451, 2.7824574999976903]","[None, 'target']",26,0,26,0,72.36518990001059,,5,72.34772220000741,72.36518990001059,72.36518990001059,0.03304999999818392,75.13039390000631,"[np.float64(0.35833333333333334), np.float64(0.2462962962962963)]","[np.float64(0.13518518518518519), np.float64(-0.27870370370370373)]","[0, 0]","[0, 0]","[1, 1]","[0.0011014999763574451, 2.7824574999976903]","[None, 'target']",001,001,2025-09-30_19h38.22.326,Visual Search,,2025.1.1,60.01925417312558,2025-09-30 19h38.35.536075 +0530,
27,0,27,"[np.float64(-0.4148148148148148), np.float64(-0.40370370370370373)]","[np.float64(-0.4398148148148148), np.float64(-0.43148148148148147)]","[0, 0]","[0, 0]","[1, 1]","[2.8994565999892075, 3.9318622999999207]","[None, 'target']",27,0,27,0,75.1757132000057,,5,75.16568880001432,75.1757132000057,75.1757132000057,0.034571199998026714,79.09770040001604,"[np.float64(-0.4148148148148148), np.float64(-0.40370370370370373)]","[np.float64(-0.4398148148148148), np.float64(-0.43148148148148147)]","[0, 0]","[0, 0]","[1, 1]","[2.8994565999892075, 3.9318622999999207]","[None, 'target']",001,001,2025-09-30_19h38.22.326,Visual Search,,2025.1.1,60.01925417312558,2025-09-30 19h38.35.536075 +0530,
28,0,28,[np.float64(0.19166666666666668)],[np.float64(-0.3990740740740741)],[0],[0],[0],[2.872695099998964],['target'],28,0,28,0,79.1408713000128,,10,79.12424299999839,79.1408713000128,79.1408713000128,0.025858800014248118,81.99700020000455,[np.float64(0.19166666666666668)],[np.float64(-0.3990740740740741)],[0],[0],[0],[2.872695099998964],['target'],001,001,2025-09-30_19h38.22.326,Visual Search,,2025.1.1,60.01925417312558,2025-09-30 19h38.35.536075 +0530,
29,0,29,[np.float64(-0.06574074074074074)],[np.float64(-0.25)],[0],[0],[1],[2.52387869998347],['target'],29,0,29,0,82.0395590000262,,10,82.02471300002071,82.0395590000262,82.0395590000262,0.027546299999812618,84.54887070000404,[np.float64(-0.06574074074074074)],[np.float64(-0.25)],[0],[0],[1],[2.52387869998347],['target'],001,001,2025-09-30_19h38.22.326,Visual Search,,2025.1.1,60.01925417312558,2025-09-30 19h38.35.536075 +0530,
30,0,30,"[np.float64(-0.06574074074074074), np.float64(0.262037037037037)]","[np.float64(-0.25), np.float64(0.2953703703703704)]","[0, 0]","[0, 0]","[1, 1]","[0.001063200004864484, 3.0886352000234183]","[None, 'target']",30,0,30,0,84.58845540002221,,5,84.57846610000706,84.58845540002221,84.58845540002221,0.029216099996119738,87.66761450000922,"[np.float64(-0.06574074074074074), np.float64(0.262037037037037)]","[np.float64(-0.25), np.float64(0.2953703703703704)]","[0, 0]","[0, 0]","[1, 1]","[0.001063200004864484, 3.0886352000234183]","[None, 'target']",001,001,2025-09-30_19h38.22.326,Visual Search,,2025.1.1,60.01925417312558,2025-09-30 19h38.35.536075 +0530,
31,0,31,"[np.float64(0.262037037037037), np.float64(0.04259259259259259)]","[np.float64(0.2953703703703704), np.float64(0.362962962962963)]","[0, 0]","[0, 0]","[1, 1]","[0.0008309000113513321, 1.6063961000181735]","[None, 'target']",31,0,31,0,87.71649640001124,,5,87.70502400002442,87.71649640001124,87.71649640001124,0.03632439998909831,89.31149540000479,"[np.float64(0.262037037037037), np.float64(0.04259259259259259)]","[np.float64(0.2953703703703704), np.float64(0.362962962962963)]","[0, 0]","[0, 0]","[1, 1]","[0.0008309000113513321, 1.6063961000181735]","[None, 'target']",001,001,2025-09-30_19h38.22.326,Visual Search,,2025.1.1,60.01925417312558,2025-09-30 19h38.35.536075 +0530,
32,0,32,"[np.float64(0.04259259259259259), np.float64(0.3425925925925926)]","[np.float64(0.362962962962963), np.float64(-0.12962962962962962)]","[0, 0]","[0, 0]","[1, 1]","[0.0011972999782301486, 2.5623733999964315]","[None, 'target']",32,0,32,0,89.34559480001917,,5,89.3323756000027,89.34559480001917,89.34559480001917,0.02070990001084283,91.89489950001007,"[np.float64(0.04259259259259259), np.float64(0.3425925925925926)]","[np.float64(0.362962962962963), np.float64(-0.12962962962962962)]","[0, 0]","[0, 0]","[1, 1]","[0.0011972999782301486, 2.5623733999964315]","[None, 'target']",001,001,2025-09-30_19h38.22.326,Visual Search,,2025.1.1,60.01925417312558,2025-09-30 19h38.35.536075 +0530,
33,0,33,[np.float64(0.24814814814814815)],[np.float64(0.3351851851851852)],[0],[0],[1],[2.601041300018551],['target'],33,0,33,0,91.95917110002483,,10,91.94368730002316,91.95917110002483,91.95917110002483,0.0480997999839019,94.54484390001744,[np.float64(0.24814814814814815)],[np.float64(0.3351851851851852)],[0],[0],[1],[2.601041300018551],['target'],001,001,2025-09-30_19h38.22.326,Visual Search,,2025.1.1,60.01925417312558,2025-09-30 19h38.35.536075 +0530,
34,0,34,[np.float64(0.3314814814814815)],[np.float64(-0.24351851851851852)],[0],[0],[1],[2.6364871000114363],['target'],34,0,34,0,94.57105250001769,,5,94.56097190000582,94.57105250001769,94.57105250001769,0.015851400006795302,97.197722300014,[np.float64(0.3314814814814815)],[np.float64(-0.24351851851851852)],[0],[0],[1],[2.6364871000114363],['target'],001,001,2025-09-30_19h38.22.326,Visual Search,,2025.1.1,60.01925417312558,2025-09-30 19h38.35.536075 +0530,
35,0,35,[np.float64(0.4222222222222222)],[np.float64(0.4777777777777778)],[0],[0],[1],[2.243089900002815],['target'],35,0,35,0,97.24890240002424,,10,97.23379140000907,97.24890240002424,97.24890240002424,0.03549030001158826,99.4769598999992,[np.float64(0.4222222222222222)],[np.float64(0.4777777777777778)],[0],[0],[1],[2.243089900002815],['target'],001,001,2025-09-30_19h38.22.326,Visual Search,,2025.1.1,60.01925417312558,2025-09-30 19h38.35.536075 +0530,
36,0,36,[np.float64(0.34814814814814815)],[np.float64(-0.25833333333333336)],[0],[0],[1],[2.688847799989162],['target'],36,0,36,0,99.52250780002214,,10,99.50727240002016,99.52250780002214,99.52250780002214,0.03007680000155233,102.19649760000175,[np.float64(0.34814814814814815)],[np.float64(-0.25833333333333336)],[0],[0],[1],[2.688847799989162],['target'],001,001,2025-09-30_19h38.22.326,Visual Search,,2025.1.1,60.01925417312558,2025-09-30 19h38.35.536075 +0530,
37,0,37,"[np.float64(0.34814814814814815), np.float64(-0.4787037037037037)]","[np.float64(-0.25833333333333336), np.float64(0.3351851851851852)]","[0, 0]","[0, 0]","[1, 1]","[0.0006461000011768192, 2.584502399986377]","[None, 'target']",37,0,37,0,102.27822900001775,,10,102.26147300002049,102.27822900001775,102.27822900001775,0.06365029999869876,104.8462105000217,"[np.float64(0.34814814814814815), np.float64(-0.4787037037037037)]","[np.float64(-0.25833333333333336), np.float64(0.3351851851851852)]","[0, 0]","[0, 0]","[1, 1]","[0.0006461000011768192, 2.584502399986377]","[None, 'target']",001,001,2025-09-30_19h38.22.326,Visual Search,,2025.1.1,60.01925417312558,2025-09-30 19h38.35.536075 +0530,
38,0,38,[np.float64(0.17407407407407408)],[np.float64(-0.24259259259259258)],[0],[0],[1],[1.7831675999914296],['target'],38,0,38,0,104.88795490001212,,5,104.87835660000565,104.88795490001212,104.88795490001212,0.03071200000704266,106.66179460001877,[np.float64(0.17407407407407408)],[np.float64(-0.24259259259259258)],[0],[0],[1],[1.7831675999914296],['target'],001,001,2025-09-30_19h38.22.326,Visual Search,,2025.1.1,60.01925417312558,2025-09-30 19h38.35.536075 +0530,
39,0,39,[np.float64(-0.10925925925925926)],[np.float64(-0.30833333333333335)],[0],[0],[1],[2.3569600000046194],['target'],39,0,39,0,106.69674420001684,,5,106.68700080001145,106.69674420001684,106.69674420001684,0.02458279998973012,109.04409170002327,[np.float64(-0.10925925925925926)],[np.float64(-0.30833333333333335)],[0],[0],[1],[2.3569600000046194],['target'],001,001,2025-09-30_19h38.22.326,Visual Search,,2025.1.1,60.01925417312558,2025-09-30 19h38.35.536075 +0530,
40,0,40,[np.float64(-0.44166666666666665)],[np.float64(0.3074074074074074)],[0],[0],[1],[2.2802041999821085],['target'],40,0,40,0,109.07749540000805,,5,109.06747760000871,109.07749540000805,109.07749540000805,0.023126699990825728,111.3482464000117,[np.float64(-0.44166666666666665)],[np.float64(0.3074074074074074)],[0],[0],[1],[2.2802041999821085],['target'],001,001,2025-09-30_19h38.22.326,Visual Search,,2025.1.1,60.01925417312558,2025-09-30 19h38.35.536075 +0530,
41,0,41,"[np.float64(-0.44166666666666665), np.float64(0.25925925925925924)]","[np.float64(0.3074074074074074), np.float64(0.11944444444444445)]","[0, 0]","[0, 0]","[1, 1]","[0.0009122999908868223, 2.8363666999794077]","[None, 'target']",41,0,41,0,111.4032387000043,,5,111.38994790002471,111.4032387000043,111.4032387000043,0.040482399985194206,114.22644520000904,"[np.float64(-0.44166666666666665), np.float64(0.25925925925925924)]","[np.float64(0.3074074074074074), np.float64(0.11944444444444445)]","[0, 0]","[0, 0]","[1, 1]","[0.0009122999908868223, 2.8363666999794077]","[None, 'target']",001,001,2025-09-30_19h38.22.326,Visual Search,,2025.1.1,60.01925417312558,2025-09-30 19h38.35.536075 +0530,
42,0,42,[np.float64(0.4324074074074074)],[np.float64(-0.08703703703703704)],[0],[0],[1],[2.301800099987304],['target'],42,0,42,0,114.2770946000237,,10,114.26159520001966,114.2770946000237,114.2770946000237,0.03470819999347441,116.56363390001934,[np.float64(0.4324074074074074)],[np.float64(-0.08703703703703704)],[0],[0],[1],[2.301800099987304],['target'],001,001,2025-09-30_19h38.22.326,Visual Search,,2025.1.1,60.01925417312558,2025-09-30 19h38.35.536075 +0530,
43,0,43,"[np.float64(0.4324074074074074), np.float64(0.3425925925925926)]","[np.float64(-0.08703703703703704), np.float64(-0.38981481481481484)]","[0, 0]","[0, 0]","[1, 1]","[0.0007139999943319708, 2.2998318999889307]","[None, 'target']",43,0,43,0,116.60249940000358,,5,116.59274040002492,116.60249940000358,116.60249940000358,0.028326100000413135,118.89298299999791,"[np.float64(0.4324074074074074), np.float64(0.3425925925925926)]","[np.float64(-0.08703703703703704), np.float64(-0.38981481481481484)]","[0, 0]","[0, 0]","[1, 1]","[0.0007139999943319708, 2.2998318999889307]","[None, 'target']",001,001,2025-09-30_19h38.22.326,Visual Search,,2025.1.1,60.01925417312558,2025-09-30 19h38.35.536075 +0530,
44,0,44,[np.float64(-0.44722222222222224)],[np.float64(-0.26481481481481484)],[0],[0],[1],[2.1504279999935534],['target'],44,0,44,0,118.96059349999996,,10,118.94364300000598,118.96059349999996,118.96059349999996,0.049425600009271875,121.09427320002578,[np.float64(-0.44722222222222224)],[np.float64(-0.26481481481481484)],[0],[0],[1],[2.1504279999935534],['target'],001,001,2025-09-30_19h38.22.326,Visual Search,,2025.1.1,60.01925417312558,2025-09-30 19h38.35.536075 +0530,
45,0,45,[np.float64(-0.1388888888888889)],[np.float64(-0.2796296296296296)],[0],[0],[1],[1.6581465000053868],['target'],45,0,45,0,121.15306310000597,,10,121.13782730000094,121.15306310000597,121.15306310000597,0.04292090001399629,122.79620420001447,[np.float64(-0.1388888888888889)],[np.float64(-0.2796296296296296)],[0],[0],[1],[1.6581465000053868],['target'],001,001,2025-09-30_19h38.22.326,Visual Search,,2025.1.1,60.01925417312558,2025-09-30 19h38.35.536075 +0530,
46,0,46,"[np.float64(-0.1388888888888889), np.float64(0.22407407407407406)]","[np.float64(-0.2796296296296296), np.float64(-0.4546296296296296)]","[0, 0]","[0, 0]","[1, 1]","[0.0009309999877586961, 2.042398699995829]","[None, 'target']",46,0,46,0,122.84460589999799,,5,122.83275110000977,122.84460589999799,122.84460589999799,0.03574530000332743,124.87535460002255,"[np.float64(-0.1388888888888889), np.float64(0.22407407407407406)]","[np.float64(-0.2796296296296296), np.float64(-0.4546296296296296)]","[0, 0]","[0, 0]","[1, 1]","[0.0009309999877586961, 2.042398699995829]","[None, 'target']",001,001,2025-09-30_19h38.22.326,Visual Search,,2025.1.1,60.01925417312558,2025-09-30 19h38.35.536075 +0530,
47,0,47,[np.float64(0.15833333333333333)],[np.float64(0.10092592592592593)],[0],[0],[1],[1.849986400018679],['target'],47,0,47,0,124.94026420000591,,10,124.92576480002026,124.94026420000591,124.94026420000591,0.04989910000585951,126.77604050000082,[np.float64(0.15833333333333333)],[np.float64(0.10092592592592593)],[0],[0],[1],[1.849986400018679],['target'],001,001,2025-09-30_19h38.22.326,Visual Search,,2025.1.1,60.01925417312558,2025-09-30 19h38.35.536075 +0530,
48,0,48,[np.float64(0.25555555555555554)],[np.float64(-0.04537037037037037)],[0],[0],[1],[1.3837326999928337],['target'],48,0,48,0,126.84004880001885,,10,126.82455390001996,126.84004880001885,126.84004880001885,0.047816700011026114,128.20834360001027,[np.float64(0.25555555555555554)],[np.float64(-0.04537037037037037)],[0],[0],[1],[1.3837326999928337],['target'],001,001,2025-09-30_19h38.22.326,Visual Search,,2025.1.1,60.01925417312558,2025-09-30 19h38.35.536075 +0530,
49,0,49,"[np.float64(0.25555555555555554), np.float64(0.3712962962962963)]","[np.float64(-0.04537037037037037), np.float64(0.29444444444444445)]","[0, 0]","[0, 0]","[1, 1]","[0.0006867000192869455, 2.5645559999975376]","[None, 'target']",49,0,49,0,128.26163200000883,,10,128.2426845000009,128.26163200000883,128.26163200000883,0.03417810000246391,130.8073190000141,"[np.float64(0.25555555555555554), np.float64(0.3712962962962963)]","[np.float64(-0.04537037037037037), np.float64(0.29444444444444445)]","[0, 0]","[0, 0]","[1, 1]","[0.0006867000192869455, 2.5645559999975376]","[None, 'target']",001,001,2025-09-30_19h38.22.326,Visual Search,,2025.1.1,60.01925417312558,2025-09-30 19h38.35.536075 +0530,
50,0,50,[np.float64(0.41203703703703703)],[np.float64(-0.10740740740740741)],[0],[0],[1],[1.9027552000188734],['target'],50,0,50,0,130.85885530000087,,10,130.84319240000332,130.85885530000087,130.85885530000087,0.03559370001312345,132.74631300001056,[np.float64(0.41203703703703703)],[np.float64(-0.10740740740740741)],[0],[0],[1],[1.9027552000188734],['target'],001,001,2025-09-30_19h38.22.326,Visual Search,,2025.1.1,60.01925417312558,2025-09-30 19h38.35.536075 +0530,
51,0,51,[np.float64(0.16111111111111112)],[np.float64(0.09722222222222222)],[0],[0],[1],[1.5840905999939423],['target'],51,0,51,0,132.8214845000184,,10,132.806198700011,132.8214845000184,132.8214845000184,0.05881390001741238,134.39036170000327,[np.float64(0.16111111111111112)],[np.float64(0.09722222222222222)],[0],[0],[1],[1.5840905999939423],['target'],001,001,2025-09-30_19h38.22.326,Visual Search,,2025.1.1,60.01925417312558,2025-09-30 19h38.35.536075 +0530,
52,0,52,"[np.float64(0.16111111111111112), np.float64(0.29444444444444445), np.float64(0.3148148148148148)]","[np.float64(0.09722222222222222), np.float64(-0.1712962962962963), np.float64(-0.15925925925925927)]","[0, 0, 0]","[0, 0, 0]","[1, 1, 1]","[0.00090819998877123, 1.6534770999860484, 3.1367311000067275]","[None, None, 'target']",52,0,52,0,134.41288180000265,,5,134.4033934000181,134.41288180000265,134.41288180000265,0.012859999987995252,137.5402961000218,"[np.float64(0.16111111111111112), np.float64(0.29444444444444445), np.float64(0.3148148148148148)]","[np.float64(0.09722222222222222), np.float64(-0.1712962962962963), np.float64(-0.15925925925925927)]","[0, 0, 0]","[0, 0, 0]","[1, 1, 1]","[0.00090819998877123, 1.6534770999860484, 3.1367311000067275]","[None, None, 'target']",001,001,2025-09-30_19h38.22.326,Visual Search,,2025.1.1,60.01925417312558,2025-09-30 19h38.35.536075 +0530,
53,0,53,[np.float64(0.27870370370370373)],[np.float64(0.15648148148148147)],[0],[0],[1],[1.8121663000201806],['target'],53,0,53,0,137.57055350000155,,5,137.561165000021,137.57055350000155,137.57055350000155,0.02034980000462383,139.37343560002046,[np.float64(0.27870370370370373)],[np.float64(0.15648148148148147)],[0],[0],[1],[1.8121663000201806],['target'],001,001,2025-09-30_19h38.22.326,Visual Search,,2025.1.1,60.01925417312558,2025-09-30 19h38.35.536075 +0530,
54,0,54,"[np.float64(0.27870370370370373), np.float64(-0.24166666666666667)]","[np.float64(0.15648148148148147), np.float64(0.3)]","[0, 0]","[0, 0]","[1, 1]","[0.00046800001291558146, 2.434065500012366]","[None, 'target']",54,0,54,0,139.39955680002458,,5,139.3909249000135,139.39955680002458,139.39955680002458,0.01733040000544861,141.8252195000241,"[np.float64(0.27870370370370373), np.float64(-0.24166666666666667)]","[np.float64(0.15648148148148147), np.float64(0.3)]","[0, 0]","[0, 0]","[1, 1]","[0.00046800001291558146, 2.434065500012366]","[None, 'target']",001,001,2025-09-30_19h38.22.326,Visual Search,,2025.1.1,60.01925417312558,2025-09-30 19h38.35.536075 +0530,
55,0,55,"[np.float64(-0.24166666666666667), np.float64(0.14166666666666666)]","[np.float64(0.3), np.float64(0.3925925925925926)]","[0, 0]","[0, 0]","[1, 1]","[0.0008598999993409961, 2.130609000014374]","[None, 'target']",55,0,55,0,141.8738885000057,,5,141.86081150002428,141.8738885000057,141.8738885000057,0.03493199998047203,143.99162900002557,"[np.float64(-0.24166666666666667), np.float64(0.14166666666666666)]","[np.float64(0.3), np.float64(0.3925925925925926)]","[0, 0]","[0, 0]","[1, 1]","[0.0008598999993409961, 2.130609000014374]","[None, 'target']",001,001,2025-09-30_19h38.22.326,Visual Search,,2025.1.1,60.01925417312558,2025-09-30 19h38.35.536075 +0530,
56,0,56,"[np.float64(0.14166666666666666), np.float64(-0.5009259259259259)]","[np.float64(0.3925925925925926), np.float64(-0.325)]","[0, 0]","[0, 0]","[1, 1]","[0.0006461000011768192, 2.845709999994142]","[None, 'target']",56,0,56,0,144.06010700002662,,10,144.04388219999964,144.06010700002662,144.06010700002662,0.051680600008694455,146.88964540002053,"[np.float64(0.14166666666666666), np.float64(-0.5009259259259259)]","[np.float64(0.3925925925925926), np.float64(-0.325)]","[0, 0]","[0, 0]","[1, 1]","[0.0006461000011768192, 2.845709999994142]","[None, 'target']",001,001,2025-09-30_19h38.22.326,Visual Search,,2025.1.1,60.01925417312558,2025-09-30 19h38.35.536075 +0530,
57,0,57,"[np.float64(-0.5009259259259259), np.float64(-0.15925925925925927)]","[np.float64(-0.325), np.float64(0.08425925925925926)]","[0, 0]","[0, 0]","[1, 1]","[0.0006772000051569194, 1.5907921000034548]","[None, 'target']",57,0,57,0,146.93048660000204,,10,146.9155807000061,146.93048660000204,146.93048660000204,0.025784599973121658,148.50659679999808,"[np.float64(-0.5009259259259259), np.float64(-0.15925925925925927)]","[np.float64(-0.325), np.float64(0.08425925925925926)]","[0, 0]","[0, 0]","[1, 1]","[0.0006772000051569194, 1.5907921000034548]","[None, 'target']",001,001,2025-09-30_19h38.22.326,Visual Search,,2025.1.1,60.01925417312558,2025-09-30 19h38.35.536075 +0530,
58,0,58,"[np.float64(-0.15925925925925927), np.float64(0.19074074074074074)]","[np.float64(0.08425925925925926), np.float64(-0.12777777777777777)]","[0, 0]","[0, 0]","[1, 1]","[0.0006392000068444759, 2.087417300004745]","[None, 'target']",58,0,58,0,148.56686220000847,,10,148.55123150002328,148.56686220000847,148.56686220000847,0.0438776999944821,150.63871600001585,"[np.float64(-0.15925925925925927), np.float64(0.19074074074074074)]","[np.float64(0.08425925925925926), np.float64(-0.12777777777777777)]","[0, 0]","[0, 0]","[1, 1]","[0.0006392000068444759, 2.087417300004745]","[None, 'target']",001,001,2025-09-30_19h38.22.326,Visual Search,,2025.1.1,60.01925417312558,2025-09-30 19h38.35.536075 +0530,
59,0,59,"[np.float64(0.19074074074074074), np.float64(-0.2935185185185185)]","[np.float64(-0.12777777777777777), np.float64(-0.40925925925925927)]","[0, 0]","[0, 0]","[1, 1]","[0.0008611000084783882, 2.806044800003292]","[None, 'target']",59,0,59,0,150.71477550000418,,10,150.69894470000872,150.71477550000418,150.71477550000418,0.05971950001548976,153.50506400002632,"[np.float64(0.19074074074074074), np.float64(-0.2935185185185185)]","[np.float64(-0.12777777777777777), np.float64(-0.40925925925925927)]","[0, 0]","[0, 0]","[1, 1]","[0.0008611000084783882, 2.806044800003292]","[None, 'target']",001,001,2025-09-30_19h38.22.326,Visual Search,,2025.1.1,60.01925417312558,2025-09-30 19h38.35.536075 +0530,
60,0,60,"[np.float64(-0.2935185185185185), np.float64(-0.5027777777777778)]","[np.float64(-0.40925925925925927), np.float64(-0.39166666666666666)]","[0, 0]","[0, 0]","[1, 1]","[0.0006715999916195869, 1.7004546000098344]","[None, 'target']",60,0,60,0,153.55473420000635,,10,153.5376708000258,153.55473420000635,153.55473420000635,0.03236429998651147,155.2381902000052,"[np.float64(-0.2935185185185185), np.float64(-0.5027777777777778)]","[np.float64(-0.40925925925925927), np.float64(-0.39166666666666666)]","[0, 0]","[0, 0]","[1, 1]","[0.0006715999916195869, 1.7004546000098344]","[None, 'target']",001,001,2025-09-30_19h38.22.326,Visual Search,,2025.1.1,60.01925417312558,2025-09-30 19h38.35.536075 +0530,
61,0,61,"[np.float64(-0.5027777777777778), np.float64(-0.3648148148148148)]","[np.float64(-0.39166666666666666), np.float64(-0.044444444444444446)]","[0, 0]","[0, 0]","[1, 1]","[0.0006902000168338418, 1.8590603000193369]","[None, 'target']",61,0,61,0,155.2828417000128,,10,155.2656853000226,155.2828417000128,155.2828417000128,0.02728379998006858,157.1251666000171,"[np.float64(-0.5027777777777778), np.float64(-0.3648148148148148)]","[np.float64(-0.39166666666666666), np.float64(-0.044444444444444446)]","[0, 0]","[0, 0]","[1, 1]","[0.0006902000168338418, 1.8590603000193369]","[None, 'target']",001,001,2025-09-30_19h38.22.326,Visual Search,,2025.1.1,60.01925417312558,2025-09-30 19h38.35.536075 +0530,
62,0,62,"[np.float64(-0.3648148148148148), np.float64(0.3638888888888889)]","[np.float64(-0.044444444444444446), np.float64(-0.2722222222222222)]","[0, 0]","[0, 0]","[1, 1]","[0.001178800011985004, 2.3682139000156894]","[None, 'target']",62,0,62,0,157.18394270000863,,5,157.1716698000091,157.18394270000863,157.18394270000863,0.045241499989060685,159.54008710000198,"[np.float64(-0.3648148148148148), np.float64(0.3638888888888889)]","[np.float64(-0.044444444444444446), np.float64(-0.2722222222222222)]","[0, 0]","[0, 0]","[1, 1]","[0.001178800011985004, 2.3682139000156894]","[None, 'target']",001,001,2025-09-30_19h38.22.326,Visual Search,,2025.1.1,60.01925417312558,2025-09-30 19h38.35.536075 +0530,
63,0,63,[np.float64(0.475)],[np.float64(-0.14444444444444443)],[0],[0],[1],[1.775873699982185],['target'],63,0,63,0,159.58827240002574,,5,159.57877790002385,159.58827240002574,159.58827240002574,0.038112099980935454,161.35476960000233,[np.float64(0.475)],[np.float64(-0.14444444444444443)],[0],[0],[1],[1.775873699982185],['target'],001,001,2025-09-30_19h38.22.326,Visual Search,,2025.1.1,60.01925417312558,2025-09-30 19h38.35.536075 +0530,
64,0,64,"[np.float64(0.475), np.float64(-0.2916666666666667)]","[np.float64(-0.14444444444444443), np.float64(0.34814814814814815)]","[0, 0]","[0, 0]","[1, 1]","[0.0006028999923728406, 1.9671227000071667]","[None, 'target']",64,0,64,0,161.38488270001835,,5,161.3714992000023,161.38488270001835,161.38488270001835,0.016564599995035678,163.33885160001228,"[np.float64(0.475), np.float64(-0.2916666666666667)]","[np.float64(-0.14444444444444443), np.float64(0.34814814814814815)]","[0, 0]","[0, 0]","[1, 1]","[0.0006028999923728406, 1.9671227000071667]","[None, 'target']",001,001,2025-09-30_19h38.22.326,Visual Search,,2025.1.1,60.01925417312558,2025-09-30 19h38.35.536075 +0530,
65,0,65,[np.float64(-0.2518518518518518)],[np.float64(-0.3787037037037037)],[0],[0],[1],[2.4995078000065405],['target'],65,0,65,0,163.38092600001255,,5,163.37207340000896,163.38092600001255,163.38092600001255,0.03231370000867173,165.87180740002077,[np.float64(-0.2518518518518518)],[np.float64(-0.3787037037037037)],[0],[0],[1],[2.4995078000065405],['target'],001,001,2025-09-30_19h38.22.326,Visual Search,,2025.1.1,60.01925417312558,2025-09-30 19h38.35.536075 +0530,
66,0,66,[np.float64(-0.058333333333333334)],[np.float64(-0.22777777777777777)],[0],[0],[1],[2.255182099994272],['target'],66,0,66,0,165.91051210000296,,5,165.90053440001793,165.91051210000296,165.91051210000296,0.028301899990765378,168.1560311000212,[np.float64(-0.058333333333333334)],[np.float64(-0.22777777777777777)],[0],[0],[1],[2.255182099994272],['target'],001,001,2025-09-30_19h38.22.326,Visual Search,,2025.1.1,60.01925417312558,2025-09-30 19h38.35.536075 +0530,
67,0,67,"[np.float64(-0.058333333333333334), np.float64(0.42592592592592593)]","[np.float64(-0.22777777777777777), np.float64(0.45555555555555555)]","[0, 0]","[0, 0]","[1, 1]","[0.0005400999798439443, 2.051003899978241]","[None, 'target']",67,0,67,0,168.21801229999983,,10,168.20195060002152,168.21801229999983,168.21801229999983,0.04479799998807721,170.2530413000204,"[np.float64(-0.058333333333333334), np.float64(0.42592592592592593)]","[np.float64(-0.22777777777777777), np.float64(0.45555555555555555)]","[0, 0]","[0, 0]","[1, 1]","[0.0005400999798439443, 2.051003899978241]","[None, 'target']",001,001,2025-09-30_19h38.22.326,Visual Search,,2025.1.1,60.01925417312558,2025-09-30 19h38.35.536075 +0530,
68,0,68,[np.float64(0.17777777777777778)],[np.float64(-0.25555555555555554)],[0],[0],[1],[3.163019699975848],['target'],68,0,68,0,170.30569800001103,,10,170.29035190001014,170.30569800001103,170.30569800001103,0.03705679997801781,173.4534531000245,[np.float64(0.17777777777777778)],[np.float64(-0.25555555555555554)],[0],[0],[1],[3.163019699975848],['target'],001,001,2025-09-30_19h38.22.326,Visual Search,,2025.1.1,60.01925417312558,2025-09-30 19h38.35.536075 +0530,
69,0,69,"[np.float64(0.17777777777777778), np.float64(-0.47129629629629627)]","[np.float64(-0.25555555555555554), np.float64(0.3194444444444444)]","[0, 0]","[0, 0]","[1, 1]","[0.0006707999855279922, 2.45244689998799]","[None, 'target']",69,0,69,0,173.499427200004,,10,173.4838524000079,173.499427200004,173.499427200004,0.03020670000114478,175.9363994000014,"[np.float64(0.17777777777777778), np.float64(-0.47129629629629627)]","[np.float64(-0.25555555555555554), np.float64(0.3194444444444444)]","[0, 0]","[0, 0]","[1, 1]","[0.0006707999855279922, 2.45244689998799]","[None, 'target']",001,001,2025-09-30_19h38.22.326,Visual Search,,2025.1.1,60.01925417312558,2025-09-30 19h38.35.536075 +0530,
70,0,70,"[np.float64(-0.47129629629629627), np.float64(-0.29907407407407405)]","[np.float64(0.3194444444444444), np.float64(0.4564814814814815)]","[0, 0]","[0, 0]","[1, 1]","[0.0006576999730896205, 2.8549792999983765]","[None, 'target']",70,0,70,0,175.97807460001786,,10,175.96394810001948,175.97807460001786,175.97807460001786,0.027363400004105642,178.81903270000475,"[np.float64(-0.47129629629629627), np.float64(-0.29907407407407405)]","[np.float64(0.3194444444444444), np.float64(0.4564814814814815)]","[0, 0]","[0, 0]","[1, 1]","[0.0006576999730896205, 2.8549792999983765]","[None, 'target']",001,001,2025-09-30_19h38.22.326,Visual Search,,2025.1.1,60.01925417312558,2025-09-30 19h38.35.536075 +0530,
71,0,71,"[np.float64(-0.29907407407407405), np.float64(0.48518518518518516)]","[np.float64(0.4564814814814815), np.float64(-0.28055555555555556)]","[0, 0]","[0, 0]","[1, 1]","[0.0006723999977111816, 2.5304252000059932]","[None, 'target']",71,0,71,0,178.8730909000151,,10,178.85818940002355,178.8730909000151,178.8730909000151,0.038759499992011115,181.38881580001907,"[np.float64(-0.29907407407407405), np.float64(0.48518518518518516)]","[np.float64(0.4564814814814815), np.float64(-0.28055555555555556)]","[0, 0]","[0, 0]","[1, 1]","[0.0006723999977111816, 2.5304252000059932]","[None, 'target']",001,001,2025-09-30_19h38.22.326,Visual Search,,2025.1.1,60.01925417312558,2025-09-30 19h38.35.536075 +0530,
72,0,72,"[np.float64(0.48518518518518516), np.float64(0.3861111111111111)]","[np.float64(-0.28055555555555556), np.float64(-0.22777777777777777)]","[0, 0]","[0, 0]","[1, 1]","[0.000680800003465265, 2.0853078000072856]","[None, 'target']",72,0,72,0,181.44858760002535,,10,181.43331160000525,181.44858760002535,181.44858760002535,0.04378579999320209,183.5187525000074,"[np.float64(0.48518518518518516), np.float64(0.3861111111111111)]","[np.float64(-0.28055555555555556), np.float64(-0.22777777777777777)]","[0, 0]","[0, 0]","[1, 1]","[0.000680800003465265, 2.0853078000072856]","[None, 'target']",001,001,2025-09-30_19h38.22.326,Visual Search,,2025.1.1,60.01925417312558,2025-09-30 19h38.35.536075 +0530,
73,0,73,"[np.float64(0.3861111111111111), np.float64(-0.4648148148148148)]","[np.float64(-0.22777777777777777), np.float64(0.2564814814814815)]","[0, 0]","[0, 0]","[1, 1]","[0.000818600005004555, 3.1017377999960445]","[None, 'target']",73,0,73,0,183.55937500001164,,5,183.54979960000492,183.55937500001164,183.55937500001164,0.030671499989693984,186.65158810000867,"[np.float64(0.3861111111111111), np.float64(-0.4648148148148148)]","[np.float64(-0.22777777777777777), np.float64(0.2564814814814815)]","[0, 0]","[0, 0]","[1, 1]","[0.000818600005004555, 3.1017377999960445]","[None, 'target']",001,001,2025-09-30_19h38.22.326,Visual Search,,2025.1.1,60.01925417312558,2025-09-30 19h38.35.536075 +0530,
74,0,74,[np.float64(-0.21574074074074073)],[np.float64(0.14814814814814814)],[0],[0],[1],[1.9401158000109717],['target'],74,0,74,0,186.67633890002617,,5,186.66593640000792,186.67633890002617,186.67633890002617,0.014247499988414347,188.60625250000157,[np.float64(-0.21574074074074073)],[np.float64(0.14814814814814814)],[0],[0],[1],[1.9401158000109717],['target'],001,001,2025-09-30_19h38.22.326,Visual Search,,2025.1.1,60.01925417312558,2025-09-30 19h38.35.536075 +0530,
75,0,75,"[np.float64(-0.21574074074074073), np.float64(-0.41759259259259257)]","[np.float64(0.14814814814814814), np.float64(-0.2101851851851852)]","[0, 0]","[0, 0]","[1, 1]","[0.0010163999977521598, 2.4885053999896627]","[None, 'target']",75,0,75,0,188.65849070000695,,5,188.64810060002492,188.65849070000695,188.65849070000695,0.0411786999902688,191.1367423000047,"[np.float64(-0.21574074074074073), np.float64(-0.41759259259259257)]","[np.float64(0.14814814814814814), np.float64(-0.2101851851851852)]","[0, 0]","[0, 0]","[1, 1]","[0.0010163999977521598, 2.4885053999896627]","[None, 'target']",001,001,2025-09-30_19h38.22.326,Visual Search,,2025.1.1,60.01925417312558,2025-09-30 19h38.35.536075 +0530,
76,0,76,[np.float64(0.337037037037037)],[np.float64(-0.12777777777777777)],[0],[0],[1],[2.813163300015731],['target'],76,0,76,0,191.20270140000503,,10,191.18792100000428,191.20270140000503,191.20270140000503,0.050616799999261275,194.00115150000784,[np.float64(0.337037037037037)],[np.float64(-0.12777777777777777)],[0],[0],[1],[2.813163300015731],['target'],001,001,2025-09-30_19h38.22.326,Visual Search,,2025.1.1,60.01925417312558,2025-09-30 19h38.35.536075 +0530,
77,0,77,"[np.float64(0.337037037037037), np.float64(0.2898148148148148)]","[np.float64(-0.12777777777777777), np.float64(0.18888888888888888)]","[0, 0]","[0, 0]","[1, 1]","[0.0006572999991476536, 1.8679188000096474]","[None, 'target']",77,0,77,0,194.02907810002216,,5,194.0198671000253,194.02907810002216,194.02907810002216,0.018439000006765127,195.8879987000255,"[np.float64(0.337037037037037), np.float64(0.2898148148148148)]","[np.float64(-0.12777777777777777), np.float64(0.18888888888888888)]","[0, 0]","[0, 0]","[1, 1]","[0.0006572999991476536, 1.8679188000096474]","[None, 'target']",001,001,2025-09-30_19h38.22.326,Visual Search,,2025.1.1,60.01925417312558,2025-09-30 19h38.35.536075 +0530,
78,0,78,[np.float64(-0.037037037037037035)],[np.float64(0.44814814814814813)],[0],[0],[1],[2.6364023000060115],['target'],78,0,78,0,195.96332280000206,,10,195.94772970001213,195.96332280000206,195.96332280000206,0.05918889999156818,198.58418120001443,[np.float64(-0.037037037037037035)],[np.float64(0.44814814814814813)],[0],[0],[1],[2.6364023000060115],['target'],001,001,2025-09-30_19h38.22.326,Visual Search,,2025.1.1,60.01925417312558,2025-09-30 19h38.35.536075 +0530,
79,0,79,"[np.float64(-0.037037037037037035), np.float64(-0.21388888888888888)]","[np.float64(0.44814814814814813), np.float64(-0.03333333333333333)]","[0, 0]","[0, 0]","[1, 1]","[0.0006020000146236271, 1.948853500012774]","[None, 'target']",79,0,79,0,198.63407759999973,,10,198.61958280002,198.63407759999973,198.63407759999973,0.03520019998541102,200.56865540001309,"[np.float64(-0.037037037037037035), np.float64(-0.21388888888888888)]","[np.float64(0.44814814814814813), np.float64(-0.03333333333333333)]","[0, 0]","[0, 0]","[1, 1]","[0.0006020000146236271, 1.948853500012774]","[None, 'target']",001,001,2025-09-30_19h38.22.326,Visual Search,,2025.1.1,60.01925417312558,2025-09-30 19h38.35.536075 +0530,
80,0,80,"[np.float64(-0.21388888888888888), np.float64(0.47129629629629627), np.float64(0.25462962962962965)]","[np.float64(-0.03333333333333333), np.float64(0.2490740740740741), np.float64(-0.05462962962962963)]","[0, 0, 0]","[0, 0, 0]","[1, 1, 1]","[0.0011217000137548894, 1.9819757000077516, 3.780200100009097]","[None, None, 'target']",80,0,80,0,200.61726880000788,,5,200.60281770001166,200.61726880000788,200.61726880000788,0.033361999987391755,204.38307210002677,"[np.float64(-0.21388888888888888), np.float64(0.47129629629629627), np.float64(0.25462962962962965)]","[np.float64(-0.03333333333333333), np.float64(0.2490740740740741), np.float64(-0.05462962962962963)]","[0, 0, 0]","[0, 0, 0]","[1, 1, 1]","[0.0011217000137548894, 1.9819757000077516, 3.780200100009097]","[None, None, 'target']",001,001,2025-09-30_19h38.22.326,Visual Search,,2025.1.1,60.01925417312558,2025-09-30 19h38.35.536075 +0530,
81,0,81,"[np.float64(0.25462962962962965), np.float64(0.30185185185185187)]","[np.float64(-0.05462962962962963), np.float64(-0.32592592592592595)]","[0, 0]","[0, 0]","[1, 1]","[0.0005463999987114221, 1.7347218000213616]","[None, 'target']",81,0,81,0,204.43452290000278,,10,204.4149960000068,204.43452290000278,204.43452290000278,0.03173029999015853,206.14984670002013,"[np.float64(0.25462962962962965), np.float64(0.30185185185185187)]","[np.float64(-0.05462962962962963), np.float64(-0.32592592592592595)]","[0, 0]","[0, 0]","[1, 1]","[0.0005463999987114221, 1.7347218000213616]","[None, 'target']",001,001,2025-09-30_19h38.22.326,Visual Search,,2025.1.1,60.01925417312558,2025-09-30 19h38.35.536075 +0530,
82,0,82,"[np.float64(0.30185185185185187), np.float64(0.21666666666666667)]","[np.float64(-0.32592592592592595), np.float64(0.3351851851851852)]","[0, 0]","[0, 0]","[1, 1]","[0.0006442000158131123, 1.7630827000248246]","[None, 'target']",82,0,82,0,206.20278620001045,,10,206.1868532000226,206.20278620001045,206.20278620001045,0.03654099997947924,207.9500969000219,"[np.float64(0.30185185185185187), np.float64(0.21666666666666667)]","[np.float64(-0.32592592592592595), np.float64(0.3351851851851852)]","[0, 0]","[0, 0]","[1, 1]","[0.0006442000158131123, 1.7630827000248246]","[None, 'target']",001,001,2025-09-30_19h38.22.326,Visual Search,,2025.1.1,60.01925417312558,2025-09-30 19h38.35.536075 +0530,
83,0,83,"[np.float64(0.21666666666666667), np.float64(0.07777777777777778)]","[np.float64(0.3351851851851852), np.float64(0.1962962962962963)]","[0, 0]","[0, 0]","[1, 1]","[0.0007293999951798469, 2.5770375999854878]","[None, 'target']",83,0,83,0,207.98422920002486,,5,207.97360590001335,207.98422920002486,207.98422920002486,0.022937400004593655,210.55085070000496,"[np.float64(0.21666666666666667), np.float64(0.07777777777777778)]","[np.float64(0.3351851851851852), np.float64(0.1962962962962963)]","[0, 0]","[0, 0]","[1, 1]","[0.0007293999951798469, 2.5770375999854878]","[None, 'target']",001,001,2025-09-30_19h38.22.326,Visual Search,,2025.1.1,60.01925417312558,2025-09-30 19h38.35.536075 +0530,
84,0,84,"[np.float64(0.07777777777777778), np.float64(0.2675925925925926)]","[np.float64(0.1962962962962963), np.float64(-0.18333333333333332)]","[0, 0]","[0, 0]","[1, 1]","[0.0008029000018723309, 2.41125230002217]","[None, 'target']",84,0,84,0,210.60139140000683,,5,210.58945200001472,210.60139140000683,210.60139140000683,0.03810810000868514,213.00094670002,"[np.float64(0.07777777777777778), np.float64(0.2675925925925926)]","[np.float64(0.1962962962962963), np.float64(-0.18333333333333332)]","[0, 0]","[0, 0]","[1, 1]","[0.0008029000018723309, 2.41125230002217]","[None, 'target']",001,001,2025-09-30_19h38.22.326,Visual Search,,2025.1.1,60.01925417312558,2025-09-30 19h38.35.536075 +0530,
85,0,85,"[np.float64(0.2675925925925926), np.float64(0.38333333333333336), np.float64(0.4009259259259259)]","[np.float64(-0.18333333333333332), np.float64(-0.3509259259259259), np.float64(-0.3527777777777778)]","[0, 0, 0]","[0, 0, 0]","[1, 1, 1]","[0.0005910999898333102, 1.7433980999921914, 2.7109619000111707]","[None, None, 'target']",85,0,85,0,213.04778050002642,,5,213.03876980001223,213.04778050002642,213.04778050002642,0.03711279999697581,215.750761400006,"[np.float64(0.2675925925925926), np.float64(0.38333333333333336), np.float64(0.4009259259259259)]","[np.float64(-0.18333333333333332), np.float64(-0.3509259259259259), np.float64(-0.3527777777777778)]","[0, 0, 0]","[0, 0, 0]","[1, 1, 1]","[0.0005910999898333102, 1.7433980999921914, 2.7109619000111707]","[None, None, 'target']",001,001,2025-09-30_19h38.22.326,Visual Search,,2025.1.1,60.01925417312558,2025-09-30 19h38.35.536075 +0530,
86,0,86,[np.float64(0.47685185185185186)],[np.float64(-0.4537037037037037)],[0],[0],[1],[1.732447200018214],['target'],86,0,86,0,215.79565370001364,,5,215.78580680000596,215.79565370001364,215.79565370001364,0.032757400011178106,217.51852460001828,[np.float64(0.47685185185185186)],[np.float64(-0.4537037037037037)],[0],[0],[1],[1.732447200018214],['target'],001,001,2025-09-30_19h38.22.326,Visual Search,,2025.1.1,60.01925417312558,2025-09-30 19h38.35.536075 +0530,
87,0,87,[np.float64(-0.39444444444444443)],[np.float64(-0.09444444444444444)],[0],[0],[1],[1.9209964000037871],['target'],87,0,87,0,217.59274350001942,,10,217.57834610002465,217.59274350001942,217.59274350001942,0.05890850001014769,219.4994595000171,[np.float64(-0.39444444444444443)],[np.float64(-0.09444444444444444)],[0],[0],[1],[1.9209964000037871],['target'],001,001,2025-09-30_19h38.22.326,Visual Search,,2025.1.1,60.01925417312558,2025-09-30 19h38.35.536075 +0530,
88,0,88,"[np.float64(-0.39444444444444443), np.float64(-0.06388888888888888)]","[np.float64(-0.09444444444444444), np.float64(0.18611111111111112)]","[0, 0]","[0, 0]","[1, 1]","[0.0006494999979622662, 1.8749863999837544]","[None, 'target']",88,0,88,0,219.55808500002604,,10,219.54144240001915,219.55808500002604,219.55808500002604,0.041697500011650845,221.41676550000557,"[np.float64(-0.39444444444444443), np.float64(-0.06388888888888888)]","[np.float64(-0.09444444444444444), np.float64(0.18611111111111112)]","[0, 0]","[0, 0]","[1, 1]","[0.0006494999979622662, 1.8749863999837544]","[None, 'target']",001,001,2025-09-30_19h38.22.326,Visual Search,,2025.1.1,60.01925417312558,2025-09-30 19h38.35.536075 +0530,
89,0,89,[np.float64(0.22314814814814815)],[np.float64(-0.32685185185185184)],[0],[0],[1],[1.9546485999890137],['target'],89,0,89,0,221.47532850000425,,10,221.46056140001747,221.47532850000425,221.47532850000425,0.04283200000645593,223.415330000018,[np.float64(0.22314814814814815)],[np.float64(-0.32685185185185184)],[0],[0],[1],[1.9546485999890137],['target'],001,001,2025-09-30_19h38.22.326,Visual Search,,2025.1.1,60.01925417312558,2025-09-30 19h38.35.536075 +0530,
90,0,90,"[np.float64(0.22314814814814815), np.float64(0.20555555555555555)]","[np.float64(-0.32685185185185184), np.float64(0.22037037037037038)]","[0, 0]","[0, 0]","[1, 1]","[0.0013436999870464206, 2.156121500011068]","[None, 'target']",90,0,90,0,223.45467720000306,,5,223.44230390002485,223.45467720000306,223.45467720000306,0.02662310001323931,225.5985421000223,"[np.float64(0.22314814814814815), np.float64(0.20555555555555555)]","[np.float64(-0.32685185185185184), np.float64(0.22037037037037038)]","[0, 0]","[0, 0]","[1, 1]","[0.0013436999870464206, 2.156121500011068]","[None, 'target']",001,001,2025-09-30_19h38.22.326,Visual Search,,2025.1.1,60.01925417312558,2025-09-30 19h38.35.536075 +0530,
91,0,91,[np.float64(-0.05648148148148148)],[np.float64(-0.40370370370370373)],[0],[0],[1],[2.0696507999964524],['target'],91,0,91,0,225.64492360001896,,10,225.63042880001012,225.64492360001896,225.64492360001896,0.03154600001289509,227.7004174000176,[np.float64(-0.05648148148148148)],[np.float64(-0.40370370370370373)],[0],[0],[1],[2.0696507999964524],['target'],001,001,2025-09-30_19h38.22.326,Visual Search,,2025.1.1,60.01925417312558,2025-09-30 19h38.35.536075 +0530,
92,0,92,"[np.float64(-0.05648148148148148), np.float64(-0.017592592592592594)]","[np.float64(-0.40370370370370373), np.float64(0.1537037037037037)]","[0, 0]","[0, 0]","[1, 1]","[0.0015485000039916486, 2.079317199997604]","[None, 'target']",92,0,92,0,227.74644260000787,,5,227.73482770001283,227.74644260000787,227.74644260000787,0.03371540000080131,229.81421480001882,"[np.float64(-0.05648148148148148), np.float64(-0.017592592592592594)]","[np.float64(-0.40370370370370373), np.float64(0.1537037037037037)]","[0, 0]","[0, 0]","[1, 1]","[0.0015485000039916486, 2.079317199997604]","[None, 'target']",001,001,2025-09-30_19h38.22.326,Visual Search,,2025.1.1,60.01925417312558,2025-09-30 19h38.35.536075 +0530,
93,0,93,"[np.float64(-0.017592592592592594), np.float64(0.31203703703703706)]","[np.float64(0.1537037037037037), np.float64(0.003703703703703704)]","[0, 0]","[0, 0]","[1, 1]","[0.0005367000121623278, 1.8636857999954373]","[None, 'target']",93,0,93,0,229.8672028000001,,10,229.85020840002107,229.8672028000001,229.8672028000001,0.035708699986571446,231.71396240001195,"[np.float64(-0.017592592592592594), np.float64(0.31203703703703706)]","[np.float64(0.1537037037037037), np.float64(0.003703703703703704)]","[0, 0]","[0, 0]","[1, 1]","[0.0005367000121623278, 1.8636857999954373]","[None, 'target']",001,001,2025-09-30_19h38.22.326,Visual Search,,2025.1.1,60.01925417312558,2025-09-30 19h38.35.536075 +0530,
94,0,94,"[np.float64(0.31203703703703706), np.float64(0.38055555555555554)]","[np.float64(0.003703703703703704), np.float64(-0.46296296296296297)]","[0, 0]","[0, 0]","[1, 1]","[0.0007317000126931816, 2.1172101000265684]","[None, 'target']",94,0,94,0,231.7402820000134,,5,231.73096650000662,231.7402820000134,231.7402820000134,0.01677909999853,233.84851560002426,"[np.float64(0.31203703703703706), np.float64(0.38055555555555554)]","[np.float64(0.003703703703703704), np.float64(-0.46296296296296297)]","[0, 0]","[0, 0]","[1, 1]","[0.0007317000126931816, 2.1172101000265684]","[None, 'target']",001,001,2025-09-30_19h38.22.326,Visual Search,,2025.1.1,60.01925417312558,2025-09-30 19h38.35.536075 +0530,
95,0,95,[np.float64(0.2972222222222222)],[np.float64(-0.021296296296296296)],[0],[0],[1],[1.9992679000133649],['target'],95,0,95,0,233.91462850000244,,10,233.8992098000017,233.91462850000244,233.91462850000244,0.04939400000148453,235.89858230002574,[np.float64(0.2972222222222222)],[np.float64(-0.021296296296296296)],[0],[0],[1],[1.9992679000133649],['target'],001,001,2025-09-30_19h38.22.326,Visual Search,,2025.1.1,60.01925417312558,2025-09-30 19h38.35.536075 +0530,
96,0,96,"[np.float64(0.29814814814814816), np.float64(-0.03796296296296296)]","[np.float64(-0.021296296296296296), np.float64(0.2462962962962963)]","[0, 0]","[0, 0]","[1, 1]","[0.0008780000207480043, 2.5028910000110045]","[None, 'target']",96,0,96,0,235.96154210000532,,10,235.9439969000232,235.96154210000532,235.96154210000532,0.045167400006903335,238.4470064000052,"[np.float64(0.29814814814814816), np.float64(-0.03796296296296296)]","[np.float64(-0.021296296296296296), np.float64(0.2462962962962963)]","[0, 0]","[0, 0]","[1, 1]","[0.0008780000207480043, 2.5028910000110045]","[None, 'target']",001,001,2025-09-30_19h38.22.326,Visual Search,,2025.1.1,60.01925417312558,2025-09-30 19h38.35.536075 +0530,
97,0,97,"[np.float64(-0.03796296296296296), np.float64(0.08333333333333333)]","[np.float64(0.2462962962962963), np.float64(-0.3824074074074074)]","[0, 0]","[0, 0]","[1, 1]","[0.0006774999783374369, 1.9717954999941867]","[None, 'target']",97,0,97,0,238.50639850000152,,10,238.49072190001607,238.50639850000152,238.50639850000152,0.04329110000981018,240.4625954000221,"[np.float64(-0.03796296296296296), np.float64(0.08333333333333333)]","[np.float64(0.2462962962962963), np.float64(-0.3824074074074074)]","[0, 0]","[0, 0]","[1, 1]","[0.0006774999783374369, 1.9717954999941867]","[None, 'target']",001,001,2025-09-30_19h38.22.326,Visual Search,,2025.1.1,60.01925417312558,2025-09-30 19h38.35.536075 +0530,
98,0,98,"[np.float64(0.08333333333333333), np.float64(-0.0962962962962963)]","[np.float64(-0.3824074074074074), np.float64(-0.2351851851851852)]","[0, 0]","[0, 0]","[1, 1]","[0.0012583000061567873, 1.5789179000130389]","[None, 'target']",98,0,98,0,240.49661870001,,5,240.48472990002483,240.49661870001,240.49661870001,0.021945100015727803,242.06385060001048,"[np.float64(0.08333333333333333), np.float64(-0.0962962962962963)]","[np.float64(-0.3824074074074074), np.float64(-0.2351851851851852)]","[0, 0]","[0, 0]","[1, 1]","[0.0012583000061567873, 1.5789179000130389]","[None, 'target']",001,001,2025-09-30_19h38.22.326,Visual Search,,2025.1.1,60.01925417312558,2025-09-30 19h38.35.536075 +0530,
99,0,99,"[np.float64(-0.0962962962962963), np.float64(0.11203703703703703)]","[np.float64(-0.2351851851851852), np.float64(-0.48333333333333334)]","[0, 0]","[0, 0]","[1, 1]","[0.0010226000158581883, 1.4975414000218734]","[None, 'target']",99,0,99,0,242.11384120001458,,5,242.10104900001897,242.11384120001458,242.11384120001458,0.03670929998042993,243.5987970000133,"[np.float64(-0.0962962962962963), np.float64(0.11203703703703703)]","[np.float64(-0.2351851851851852), np.float64(-0.48333333333333334)]","[0, 0]","[0, 0]","[1, 1]","[0.0010226000158581883, 1.4975414000218734]","[None, 'target']",001,001,2025-09-30_19h38.22.326,Visual Search,,2025.1.1,60.01925417312558,2025-09-30 19h38.35.536075 +0530,
100,0,100,[np.float64(0.45185185185185184)],[np.float64(-0.018518518518518517)],[0],[0],[1],[1.997046499978751],['target'],100,0,100,0,243.664797800011,,10,243.64948630001163,243.664797800011,243.664797800011,0.05001570002059452,245.64661950001027,[np.float64(0.45185185185185184)],[np.float64(-0.018518518518518517)],[0],[0],[1],[1.997046499978751],['target'],001,001,2025-09-30_19h38.22.326,Visual Search,,2025.1.1,60.01925417312558,2025-09-30 19h38.35.536075 +0530,
101,0,101,"[np.float64(0.45185185185185184), np.float64(0.09166666666666666)]","[np.float64(-0.018518518518518517), np.float64(-0.3712962962962963)]","[0, 0]","[0, 0]","[1, 1]","[0.0006910999945830554, 1.7237847999786027]","[None, 'target']",101,0,101,0,245.70582460000878,,10,245.68882890001987,245.70582460000878,245.70582460000878,0.04192649998003617,247.4128258000128,"[np.float64(0.45185185185185184), np.float64(0.09166666666666666)]","[np.float64(-0.018518518518518517), np.float64(-0.3712962962962963)]","[0, 0]","[0, 0]","[1, 1]","[0.0006910999945830554, 1.7237847999786027]","[None, 'target']",001,001,2025-09-30_19h38.22.326,Visual Search,,2025.1.1,60.01925417312558,2025-09-30 19h38.35.536075 +0530,
102,0,102,"[np.float64(0.09166666666666666), np.float64(-0.4842592592592593)]","[np.float64(-0.3712962962962963), np.float64(-0.11203703703703703)]","[0, 0]","[0, 0]","[1, 1]","[0.0013171999889891595, 1.6699844999820925]","[None, 'target']",102,0,102,0,247.45844580000266,,5,247.4470716000069,247.45844580000266,247.45844580000266,0.03353259997675195,249.11743080001906,"[np.float64(0.09166666666666666), np.float64(-0.4842592592592593)]","[np.float64(-0.3712962962962963), np.float64(-0.11203703703703703)]","[0, 0]","[0, 0]","[1, 1]","[0.0013171999889891595, 1.6699844999820925]","[None, 'target']",001,001,2025-09-30_19h38.22.326,Visual Search,,2025.1.1,60.01925417312558,2025-09-30 19h38.35.536075 +0530,
103,0,103,[np.float64(-0.43333333333333335)],[np.float64(-0.3814814814814815)],[0],[0],[1],[1.6194571000232827],['target'],103,0,103,0,249.17162540002028,,5,249.16155220000655,249.17162540002028,249.17162540002028,0.04297290000249632,250.78139820002252,[np.float64(-0.43333333333333335)],[np.float64(-0.3814814814814815)],[0],[0],[1],[1.6194571000232827],['target'],001,001,2025-09-30_19h38.22.326,Visual Search,,2025.1.1,60.01925417312558,2025-09-30 19h38.35.536075 +0530,
104,0,104,[np.float64(-0.1111111111111111)],[np.float64(-0.262037037037037)],[0],[0],[1],[1.703377099998761],['target'],104,0,104,0,250.821336300025,,5,250.81198060000315,250.821336300025,250.821336300025,0.029588500008685514,252.51560569999856,[np.float64(-0.1111111111111111)],[np.float64(-0.262037037037037)],[0],[0],[1],[1.703377099998761],['target'],001,001,2025-09-30_19h38.22.326,Visual Search,,2025.1.1,60.01925417312558,2025-09-30 19h38.35.536075 +0530,
105,0,105,"[np.float64(-0.1111111111111111), np.float64(0.10462962962962963)]","[np.float64(-0.262037037037037), np.float64(-0.337037037037037)]","[0, 0]","[0, 0]","[1, 1]","[0.0009669999999459833, 1.4842339000024367]","[None, 'target']",105,0,105,0,252.55626950002625,,5,252.54629670002032,252.55626950002625,252.55626950002625,0.029970400006277487,254.03092230000766,"[np.float64(-0.1111111111111111), np.float64(0.10462962962962963)]","[np.float64(-0.262037037037037), np.float64(-0.337037037037037)]","[0, 0]","[0, 0]","[1, 1]","[0.0009669999999459833, 1.4842339000024367]","[None, 'target']",001,001,2025-09-30_19h38.22.326,Visual Search,,2025.1.1,60.01925417312558,2025-09-30 19h38.35.536075 +0530,
106,0,106,[np.float64(0.18888888888888888)],[np.float64(-0.2861111111111111)],[0],[0],[1],[1.5366042999958154],['target'],106,0,106,0,254.0932613000041,,10,254.078195900016,254.0932613000041,254.0932613000041,0.04389569998602383,255.61501440001302,[np.float64(0.18888888888888888)],[np.float64(-0.2861111111111111)],[0],[0],[1],[1.5366042999958154],['target'],001,001,2025-09-30_19h38.22.326,Visual Search,,2025.1.1,60.01925417312558,2025-09-30 19h38.35.536075 +0530,
107,0,107,[np.float64(-0.09907407407407408)],[np.float64(0.12777777777777777)],[0],[0],[1],[2.095134600007441],['target'],107,0,107,0,255.6658138000057,,5,255.65349830000196,255.6658138000057,255.6658138000057,0.03760949999559671,257.7490872000053,[np.float64(-0.09907407407407408)],[np.float64(0.12777777777777777)],[0],[0],[1],[2.095134600007441],['target'],001,001,2025-09-30_19h38.22.326,Visual Search,,2025.1.1,60.01925417312558,2025-09-30 19h38.35.536075 +0530,
108,0,108,[np.float64(0.42592592592592593)],[np.float64(0.2462962962962963)],[0],[0],[1],[2.546387499984121],['target'],108,0,108,0,257.8146886000177,,10,257.79893900000025,257.8146886000177,257.8146886000177,0.0487458000134211,260.3455375000194,[np.float64(0.42592592592592593)],[np.float64(0.2462962962962963)],[0],[0],[1],[2.546387499984121],['target'],001,001,2025-09-30_19h38.22.326,Visual Search,,2025.1.1,60.01925417312558,2025-09-30 19h38.35.536075 +0530,
109,0,109,"[np.float64(0.42592592592592593), np.float64(-0.1537037037037037)]","[np.float64(0.2462962962962963), np.float64(0.3731481481481482)]","[0, 0]","[0, 0]","[1, 1]","[0.0006514000124298036, 2.1220156000053976]","[None, 'target']",109,0,109,0,260.40711870000814,,10,260.3891425000038,260.40711870000814,260.40711870000814,0.04308179998770356,262.51120950002223,"[np.float64(0.42592592592592593), np.float64(-0.1537037037037037)]","[np.float64(0.2462962962962963), np.float64(0.3731481481481482)]","[0, 0]","[0, 0]","[1, 1]","[0.0006514000124298036, 2.1220156000053976]","[None, 'target']",001,001,2025-09-30_19h38.22.326,Visual Search,,2025.1.1,60.01925417312558,2025-09-30 19h38.35.536075 +0530,
110,0,110,"[np.float64(-0.1537037037037037), np.float64(-0.30833333333333335)]","[np.float64(0.3731481481481482), np.float64(-0.41203703703703703)]","[0, 0]","[0, 0]","[1, 1]","[0.0006640999927185476, 2.3905641000019386]","[None, 'target']",110,0,110,0,262.5523313000158,,10,262.53664720000234,262.5523313000158,262.5523313000158,0.0252833999984432,264.92731020000065,"[np.float64(-0.1537037037037037), np.float64(-0.30833333333333335)]","[np.float64(0.3731481481481482), np.float64(-0.41203703703703703)]","[0, 0]","[0, 0]","[1, 1]","[0.0006640999927185476, 2.3905641000019386]","[None, 'target']",001,001,2025-09-30_19h38.22.326,Visual Search,,2025.1.1,60.01925417312558,2025-09-30 19h38.35.536075 +0530,
111,0,111,"[np.float64(-0.30833333333333335), np.float64(0.22407407407407406)]","[np.float64(-0.41203703703703703), np.float64(0.05)]","[0, 0]","[0, 0]","[1, 1]","[0.0007293999951798469, 1.860427499981597]","[None, 'target']",111,0,111,0,264.9613523000153,,5,264.9499470000155,264.9613523000153,264.9613523000153,0.022051099978853017,266.8104663999984,"[np.float64(-0.30833333333333335), np.float64(0.22407407407407406)]","[np.float64(-0.41203703703703703), np.float64(0.05)]","[0, 0]","[0, 0]","[1, 1]","[0.0007293999951798469, 1.860427499981597]","[None, 'target']",001,001,2025-09-30_19h38.22.326,Visual Search,,2025.1.1,60.01925417312558,2025-09-30 19h38.35.536075 +0530,
112,0,112,"[np.float64(0.22407407407407406), np.float64(0.4287037037037037)]","[np.float64(0.05), np.float64(-0.19722222222222222)]","[0, 0]","[0, 0]","[1, 1]","[0.000597700010985136, 1.6788915999932215]","[None, 'target']",112,0,112,0,266.865472400008,,10,266.848401700001,266.865472400008,266.865472400008,0.03769620001548901,268.52744400000665,"[np.float64(0.22407407407407406), np.float64(0.4287037037037037)]","[np.float64(0.05), np.float64(-0.19722222222222222)]","[0, 0]","[0, 0]","[1, 1]","[0.000597700010985136, 1.6788915999932215]","[None, 'target']",001,001,2025-09-30_19h38.22.326,Visual Search,,2025.1.1,60.01925417312558,2025-09-30 19h38.35.536075 +0530,
113,0,113,"[np.float64(0.4287037037037037), np.float64(0.30277777777777776)]","[np.float64(-0.19722222222222222), np.float64(-0.4722222222222222)]","[0, 0]","[0, 0]","[1, 1]","[0.001279499992961064, 1.6761741999944206]","[None, 'target']",113,0,113,0,268.57957920001354,,5,268.56775300001027,268.57957920001354,268.57957920001354,0.03963770001428202,270.24412160000065,"[np.float64(0.4287037037037037), np.float64(0.30277777777777776)]","[np.float64(-0.19722222222222222), np.float64(-0.4722222222222222)]","[0, 0]","[0, 0]","[1, 1]","[0.001279499992961064, 1.6761741999944206]","[None, 'target']",001,001,2025-09-30_19h38.22.326,Visual Search,,2025.1.1,60.01925417312558,2025-09-30 19h38.35.536075 +0530,
114,0,114,"[np.float64(0.30277777777777776), np.float64(-0.22962962962962963)]","[np.float64(-0.4722222222222222), np.float64(0.23425925925925925)]","[0, 0]","[0, 0]","[1, 1]","[0.0011412999883759767, 1.8147916999878362]","[None, 'target']",114,0,114,0,270.2958998000249,,5,270.27881780001917,270.2958998000249,270.2958998000249,0.03397630000836216,272.093717700016,"[np.float64(0.30277777777777776), np.float64(-0.22962962962962963)]","[np.float64(-0.4722222222222222), np.float64(0.23425925925925925)]","[0, 0]","[0, 0]","[1, 1]","[0.0011412999883759767, 1.8147916999878362]","[None, 'target']",001,001,2025-09-30_19h38.22.326,Visual Search,,2025.1.1,60.01925417312558,2025-09-30 19h38.35.536075 +0530,
115,0,115,"[np.float64(-0.22962962962962963), np.float64(0.10555555555555556), np.float64(0.12037037037037036)]","[np.float64(0.23425925925925925), np.float64(0.05185185185185185), np.float64(0.05277777777777778)]","[0, 0, 0]","[0, 0, 0]","[1, 1, 1]","[0.0007286000181920826, 1.6099098999984562, 3.2601808000181336]","[None, None, 'target']",115,0,115,0,272.1296747000015,,5,272.1185939999996,272.1296747000015,272.1296747000015,0.02455339999869466,275.3790542000206,"[np.float64(-0.22962962962962963), np.float64(0.10555555555555556), np.float64(0.12037037037037036)]","[np.float64(0.23425925925925925), np.float64(0.05185185185185185), np.float64(0.05277777777777778)]","[0, 0, 0]","[0, 0, 0]","[1, 1, 1]","[0.0007286000181920826, 1.6099098999984562, 3.2601808000181336]","[None, None, 'target']",001,001,2025-09-30_19h38.22.326,Visual Search,,2025.1.1,60.01925417312558,2025-09-30 19h38.35.536075 +0530,
116,0,116,[np.float64(0.18518518518518517)],[np.float64(0.05648148148148148)],[0],[0],[1],[1.3357878999959212],['target'],116,0,116,0,275.4621398000163,,10,275.44572240000707,275.4621398000163,275.4621398000163,0.06567919999361038,276.78188940000837,[np.float64(0.18518518518518517)],[np.float64(0.05648148148148148)],[0],[0],[1],[1.3357878999959212],['target'],001,001,2025-09-30_19h38.22.326,Visual Search,,2025.1.1,60.01925417312558,2025-09-30 19h38.35.536075 +0530,
117,0,117,"[np.float64(0.18518518518518517), np.float64(-0.43333333333333335)]","[np.float64(0.05648148148148148), np.float64(-0.3574074074074074)]","[0, 0]","[0, 0]","[1, 1]","[0.0006224999960977584, 2.466480100003537]","[None, 'target']",117,0,117,0,276.83657230000244,,5,276.8257696000219,276.83657230000244,276.83657230000244,0.04288930000620894,279.29236810002476,"[np.float64(0.18518518518518517), np.float64(-0.43333333333333335)]","[np.float64(0.05648148148148148), np.float64(-0.3574074074074074)]","[0, 0]","[0, 0]","[1, 1]","[0.0006224999960977584, 2.466480100003537]","[None, 'target']",001,001,2025-09-30_19h38.22.326,Visual Search,,2025.1.1,60.01925417312558,2025-09-30 19h38.35.536075 +0530,
118,0,118,[np.float64(-0.49074074074074076)],[np.float64(-0.11851851851851852)],[0],[0],[1],[1.9074605999921914],['target'],118,0,118,0,279.35052050001104,,10,279.3349417000136,279.35052050001104,279.35052050001104,0.04229139999370091,281.24249450000934,[np.float64(-0.49074074074074076)],[np.float64(-0.11851851851851852)],[0],[0],[1],[1.9074605999921914],['target'],001,001,2025-09-30_19h38.22.326,Visual Search,,2025.1.1,60.01925417312558,2025-09-30 19h38.35.536075 +0530,
119,0,119,"[np.float64(-0.49074074074074076), np.float64(0.03611111111111111)]","[np.float64(-0.11851851851851852), np.float64(0.10092592592592593)]","[0, 0]","[0, 0]","[1, 1]","[0.000648700020974502, 2.0522408000251744]","[None, 'target']",119,0,119,0,281.26721000002,,5,281.25775990000693,281.26721000002,281.26721000002,0.01508869999088347,283.3104115000169,"[np.float64(-0.49074074074074076), np.float64(0.03611111111111111)]","[np.float64(-0.11851851851851852), np.float64(0.10092592592592593)]","[0, 0]","[0, 0]","[1, 1]","[0.000648700020974502, 2.0522408000251744]","[None, 'target']",001,001,2025-09-30_19h38.22.326,Visual Search,,2025.1.1,60.01925417312558,2025-09-30 19h38.35.536075 +0530,
120,0,120,[np.float64(-0.3675925925925926)],[np.float64(-0.03425925925925926)],[0],[0],[1],[1.8417203999997582],['target'],120,0,120,0,283.36179340002127,,5,283.3511529000243,283.36179340002127,283.36179340002127,0.03992479998851195,285.1931145999988,[np.float64(-0.3675925925925926)],[np.float64(-0.03425925925925926)],[0],[0],[1],[1.8417203999997582],['target'],001,001,2025-09-30_19h38.22.326,Visual Search,,2025.1.1,60.01925417312558,2025-09-30 19h38.35.536075 +0530,
121,0,121,"[np.float64(-0.3675925925925926), np.float64(-0.18611111111111112)]","[np.float64(-0.03425925925925926), np.float64(-0.03981481481481482)]","[0, 0]","[0, 0]","[0, 1]","[0.0017358000040985644, 1.4792067000234965]","[None, 'target']",121,0,121,0,285.2624052000174,,10,285.24568089999957,285.2624052000174,285.2624052000174,0.052169599977787584,286.7249688000011,"[np.float64(-0.3675925925925926), np.float64(-0.18611111111111112)]","[np.float64(-0.03425925925925926), np.float64(-0.03981481481481482)]","[0, 0]","[0, 0]","[0, 1]","[0.0017358000040985644, 1.4792067000234965]","[None, 'target']",001,001,2025-09-30_19h38.22.326,Visual Search,,2025.1.1,60.01925417312558,2025-09-30 19h38.35.536075 +0530,
122,0,122,"[np.float64(-0.18611111111111112), np.float64(0.2657407407407407)]","[np.float64(-0.03981481481481482), np.float64(0.5)]","[0, 0]","[0, 0]","[1, 1]","[0.001221699989400804, 1.8418918999959715]","[None, 'target']",122,0,122,0,286.761561500025,,5,286.7503708000004,286.761561500025,286.761561500025,0.025115199998253956,288.59262100001797,"[np.float64(-0.18611111111111112), np.float64(0.2657407407407407)]","[np.float64(-0.03981481481481482), np.float64(0.5)]","[0, 0]","[0, 0]","[1, 1]","[0.001221699989400804, 1.8418918999959715]","[None, 'target']",001,001,2025-09-30_19h38.22.326,Visual Search,,2025.1.1,60.01925417312558,2025-09-30 19h38.35.536075 +0530,
123,0,123,[np.float64(0.4527777777777778)],[np.float64(-0.2740740740740741)],[0],[0],[1],[1.727875300013693],['target'],123,0,123,0,288.6451535000233,,10,288.6301776000182,288.6451535000233,288.6451535000233,0.03637679998064414,290.3581274000171,[np.float64(0.4527777777777778)],[np.float64(-0.2740740740740741)],[0],[0],[1],[1.727875300013693],['target'],001,001,2025-09-30_19h38.22.326,Visual Search,,2025.1.1,60.01925417312558,2025-09-30 19h38.35.536075 +0530,
124,0,124,[np.float64(-0.4722222222222222)],[np.float64(0.22962962962962963)],[0],[0],[1],[2.5362900999898557],['target'],124,0,124,0,290.4052519000252,,10,290.389731400006,290.4052519000252,290.4052519000252,0.03142339998157695,292.92622220001067,[np.float64(-0.4722222222222222)],[np.float64(0.22962962962962963)],[0],[0],[1],[2.5362900999898557],['target'],001,001,2025-09-30_19h38.22.326,Visual Search,,2025.1.1,60.01925417312558,2025-09-30 19h38.35.536075 +0530,
125,0,125,[np.float64(0.4083333333333333)],[np.float64(-0.2537037037037037)],[0],[0],[1],[1.8888345999876037],['target'],125,0,125,0,292.98675830001594,,10,292.9714876000071,292.98675830001594,292.98675830001594,0.04472959999111481,294.86049260001164,[np.float64(0.4083333333333333)],[np.float64(-0.2537037037037037)],[0],[0],[1],[1.8888345999876037],['target'],001,001,2025-09-30_19h38.22.326,Visual Search,,2025.1.1,60.01925417312558,2025-09-30 19h38.35.536075 +0530,
126,0,126,[np.float64(-0.49074074074074076)],[np.float64(-0.12685185185185185)],[0],[0],[1],[1.5600298999925144],['target'],126,0,126,0,294.9129538999987,,10,294.89790180002456,294.9129538999987,294.9129538999987,0.03692909999517724,296.4580247000267,[np.float64(-0.49074074074074076)],[np.float64(-0.12685185185185185)],[0],[0],[1],[1.5600298999925144],['target'],001,001,2025-09-30_19h38.22.326,Visual Search,,2025.1.1,60.01925417312558,2025-09-30 19h38.35.536075 +0530,
127,0,127,"[np.float64(-0.49074074074074076), np.float64(-0.48703703703703705)]","[np.float64(-0.12685185185185185), np.float64(0.35555555555555557)]","[0, 0]","[0, 0]","[1, 1]","[0.0007370999956037849, 1.8504634000128135]","[None, 'target']",127,0,127,0,296.4849230000109,,5,296.4753806000226,296.4849230000109,296.4849230000109,0.01714060001540929,298.32606459999806,"[np.float64(-0.49074074074074076), np.float64(-0.48703703703703705)]","[np.float64(-0.12685185185185185), np.float64(0.35555555555555557)]","[0, 0]","[0, 0]","[1, 1]","[0.0007370999956037849, 1.8504634000128135]","[None, 'target']",001,001,2025-09-30_19h38.22.326,Visual Search,,2025.1.1,60.01925417312558,2025-09-30 19h38.35.536075 +0530,
128,0,128,[np.float64(-0.03888888888888889)],[np.float64(-0.38425925925925924)],[0],[0],[1],[1.612725400016643],['target'],128,0,128,0,298.357551699999,,5,298.3477484000032,298.357551699999,298.357551699999,0.021011300006648526,299.9609399000183,[np.float64(-0.03888888888888889)],[np.float64(-0.38425925925925924)],[0],[0],[1],[1.612725400016643],['target'],001,001,2025-09-30_19h38.22.326,Visual Search,,2025.1.1,60.01925417312558,2025-09-30 19h38.35.536075 +0530,
129,0,129,[np.float64(0.05)],[np.float64(-0.26481481481481484)],[0],[0],[1],[1.365997300017625],['target'],129,0,129,0,300.0015131000255,,5,299.99150900001405,300.0015131000255,300.0015131000255,0.02986340000643395,301.35762950000935,[np.float64(0.05)],[np.float64(-0.26481481481481484)],[0],[0],[1],[1.365997300017625],['target'],001,001,2025-09-30_19h38.22.326,Visual Search,,2025.1.1,60.01925417312558,2025-09-30 19h38.35.536075 +0530,
130,0,130,[np.float64(-0.08148148148148149)],[np.float64(0.1685185185185185)],[0],[0],[1],[2.080256699991878],['target'],130,0,130,0,301.38631810000516,,5,301.37688570001046,301.38631810000516,301.38631810000516,0.018813000002410263,303.4572149000014,[np.float64(-0.08148148148148149)],[np.float64(0.1685185185185185)],[0],[0],[1],[2.080256699991878],['target'],001,001,2025-09-30_19h38.22.326,Visual Search,,2025.1.1,60.01925417312558,2025-09-30 19h38.35.536075 +0530,
131,0,131,[np.float64(-0.34814814814814815)],[np.float64(-0.3277777777777778)],[0],[0],[1],[1.7313521000032779],['target'],131,0,131,0,303.4854811000114,,5,303.47506820000126,303.4854811000114,303.4854811000114,0.017683999991277233,305.20648960000835,[np.float64(-0.34814814814814815)],[np.float64(-0.3277777777777778)],[0],[0],[1],[1.7313521000032779],['target'],001,001,2025-09-30_19h38.22.326,Visual Search,,2025.1.1,60.01925417312558,2025-09-30 19h38.35.536075 +0530,
132,0,132,"[np.float64(-0.34814814814814815), np.float64(0.34629629629629627)]","[np.float64(-0.3277777777777778), np.float64(0.13333333333333333)]","[0, 0]","[0, 0]","[1, 1]","[0.0006254999898374081, 2.4162036000052467]","[None, 'target']",132,0,132,0,305.2341439000156,,5,305.2237713000213,305.2341439000156,305.2341439000156,0.01715090000652708,307.6400877000124,"[np.float64(-0.34814814814814815), np.float64(0.34629629629629627)]","[np.float64(-0.3277777777777778), np.float64(0.13333333333333333)]","[0, 0]","[0, 0]","[1, 1]","[0.0006254999898374081, 2.4162036000052467]","[None, 'target']",001,001,2025-09-30_19h38.22.326,Visual Search,,2025.1.1,60.01925417312558,2025-09-30 19h38.35.536075 +0530,
133,0,133,[np.float64(-0.004629629629629629)],[np.float64(0.5)],[0],[0],[1],[2.4841527999960817],['target'],133,0,133,0,307.6886349999986,,10,307.67248030001065,307.6886349999986,307.6886349999986,0.03214070000103675,310.15679040001123,[np.float64(-0.004629629629629629)],[np.float64(0.5)],[0],[0],[1],[2.4841527999960817],['target'],001,001,2025-09-30_19h38.22.326,Visual Search,,2025.1.1,60.01925417312558,2025-09-30 19h38.35.536075 +0530,
134,0,134,[np.float64(0.009259259259259259)],[np.float64(-0.37222222222222223)],[0],[0],[1],[2.626652400009334],['target'],134,0,134,0,310.2118371000106,,10,310.196972500009,310.2118371000106,310.2118371000106,0.039474899997003376,312.82383620002656,[np.float64(0.009259259259259259)],[np.float64(-0.37222222222222223)],[0],[0],[1],[2.626652400009334],['target'],001,001,2025-09-30_19h38.22.326,Visual Search,,2025.1.1,60.01925417312558,2025-09-30 19h38.35.536075 +0530,
135,0,135,[np.float64(0.4722222222222222)],[np.float64(0.28425925925925927)],[0],[0],[1],[2.177542000019457],['target'],135,0,135,0,312.94330800001626,,10,312.9282187000208,312.94330800001626,312.94330800001626,0.10385680000763386,315.1058410000114,[np.float64(0.4722222222222222)],[np.float64(0.28425925925925927)],[0],[0],[1],[2.177542000019457],['target'],001,001,2025-09-30_19h38.22.326,Visual Search,,2025.1.1,60.01925417312558,2025-09-30 19h38.35.536075 +0530,
136,0,136,[np.float64(-0.15648148148148147)],[np.float64(-0.3333333333333333)],[0],[0],[1],[1.9053385999868624],['target'],136,0,136,0,315.1511679000105,,10,315.135643000016,315.1511679000105,315.1511679000105,0.029573599982541054,317.0410829000175,[np.float64(-0.15648148148148147)],[np.float64(-0.3333333333333333)],[0],[0],[1],[1.9053385999868624],['target'],001,001,2025-09-30_19h38.22.326,Visual Search,,2025.1.1,60.01925417312558,2025-09-30 19h38.35.536075 +0530,
137,0,137,[np.float64(-0.19444444444444445)],[np.float64(0.06111111111111111)],[0],[0],[1],[3.0673154999967664],['target'],137,0,137,0,317.08638240001164,,10,317.0712866000249,317.08638240001164,317.08638240001164,0.02994599999510683,320.13866010002675,[np.float64(-0.19444444444444445)],[np.float64(0.06111111111111111)],[0],[0],[1],[3.0673154999967664],['target'],001,001,2025-09-30_19h38.22.326,Visual Search,,2025.1.1,60.01925417312558,2025-09-30 19h38.35.536075 +0530,
138,0,138,"[np.float64(-0.19444444444444445), np.float64(-0.48518518518518516)]","[np.float64(0.06111111111111111), np.float64(0.4546296296296296)]","[0, 0]","[0, 0]","[1, 1]","[0.0006615000020246953, 5.37683150000521]","[None, 'target']",138,0,138,0,320.1795318000077,,10,320.1627613000164,320.1795318000077,320.1795318000077,0.023972900002263486,325.53983730002074,"[np.float64(-0.19444444444444445), np.float64(-0.48518518518518516)]","[np.float64(0.06111111111111111), np.float64(0.4546296296296296)]","[0, 0]","[0, 0]","[1, 1]","[0.0006615000020246953, 5.37683150000521]","[None, 'target']",001,001,2025-09-30_19h38.22.326,Visual Search,,2025.1.1,60.01925417312558,2025-09-30 19h38.35.536075 +0530,
139,0,139,"[np.float64(-0.48518518518518516), np.float64(0.2111111111111111)]","[np.float64(0.4546296296296296), np.float64(0.3685185185185185)]","[0, 0]","[0, 0]","[1, 1]","[0.0007670999912079424, 2.585592599993106]","[None, 'target']",139,0,139,0,325.6000375000003,,10,325.58500910000294,325.6000375000003,325.6000375000003,0.04439880000427365,328.1707052999991,"[np.float64(-0.48518518518518516), np.float64(0.2111111111111111)]","[np.float64(0.4546296296296296), np.float64(0.3685185185185185)]","[0, 0]","[0, 0]","[1, 1]","[0.0007670999912079424, 2.585592599993106]","[None, 'target']",001,001,2025-09-30_19h38.22.326,Visual Search,,2025.1.1,60.01925417312558,2025-09-30 19h38.35.536075 +0530,
140,0,140,"[np.float64(0.2111111111111111), np.float64(0.08703703703703704)]","[np.float64(0.3685185185185185), np.float64(0.07962962962962963)]","[0, 0]","[0, 0]","[1, 1]","[0.0006847999757155776, 1.4876039999944624]","[None, 'target']",140,0,140,0,328.19658710001386,,5,328.1863781000138,328.19658710001386,328.19658710001386,0.015318799996748567,329.67446890001884,"[np.float64(0.2111111111111111), np.float64(0.08703703703703704)]","[np.float64(0.3685185185185185), np.float64(0.07962962962962963)]","[0, 0]","[0, 0]","[1, 1]","[0.0006847999757155776, 1.4876039999944624]","[None, 'target']",001,001,2025-09-30_19h38.22.326,Visual Search,,2025.1.1,60.01925417312558,2025-09-30 19h38.35.536075 +0530,
141,0,141,"[np.float64(0.08703703703703704), np.float64(-0.025925925925925925)]","[np.float64(0.07962962962962963), np.float64(-0.30833333333333335)]","[0, 0]","[0, 0]","[1, 1]","[0.0005824000108987093, 1.810454500024207]","[None, 'target']",141,0,141,0,329.72194509999827,,5,329.71248200000264,329.72194509999827,329.72194509999827,0.03674690000480041,331.5234189000039,"[np.float64(0.08703703703703704), np.float64(-0.025925925925925925)]","[np.float64(0.07962962962962963), np.float64(-0.30833333333333335)]","[0, 0]","[0, 0]","[1, 1]","[0.0005824000108987093, 1.810454500024207]","[None, 'target']",001,001,2025-09-30_19h38.22.326,Visual Search,,2025.1.1,60.01925417312558,2025-09-30 19h38.35.536075 +0530,
142,0,142,[np.float64(-0.17037037037037037)],[np.float64(0.46944444444444444)],[0],[0],[1],[1.9239843000250403],['target'],142,0,142,0,331.5734561000136,,5,331.5635712000076,331.5734561000136,331.5734561000136,0.03922060001059435,333.4876393000013,[np.float64(-0.17037037037037037)],[np.float64(0.46944444444444444)],[0],[0],[1],[1.9239843000250403],['target'],001,001,2025-09-30_19h38.22.326,Visual Search,,2025.1.1,60.01925417312558,2025-09-30 19h38.35.536075 +0530,
143,0,143,"[np.float64(-0.17037037037037037), np.float64(-0.25925925925925924)]","[np.float64(0.46944444444444444), np.float64(-0.3592592592592593)]","[0, 0]","[0, 0]","[1, 1]","[0.0010117999918293208, 1.930606899986742]","[None, 'target']",143,0,143,0,333.5434210000094,,10,333.5253609000065,333.5434210000094,333.5434210000094,0.037437799997860566,335.45618200002355,"[np.float64(-0.17037037037037037), np.float64(-0.25925925925925924)]","[np.float64(0.46944444444444444), np.float64(-0.3592592592592593)]","[0, 0]","[0, 0]","[1, 1]","[0.0010117999918293208, 1.930606899986742]","[None, 'target']",001,001,2025-09-30_19h38.22.326,Visual Search,,2025.1.1,60.01925417312558,2025-09-30 19h38.35.536075 +0530,
144,0,144,"[np.float64(-0.25925925925925924), np.float64(0.39166666666666666)]","[np.float64(-0.3592592592592593), np.float64(-0.044444444444444446)]","[0, 0]","[0, 0]","[1, 1]","[0.0016277999966405332, 2.409007100010058]","[None, 'target']",144,0,144,0,335.50733060002676,,5,335.49410890002036,335.50733060002676,335.50733060002676,0.037129600008483976,337.90323750002426,"[np.float64(-0.25925925925925924), np.float64(0.39166666666666666)]","[np.float64(-0.3592592592592593), np.float64(-0.044444444444444446)]","[0, 0]","[0, 0]","[1, 1]","[0.0016277999966405332, 2.409007100010058]","[None, 'target']",001,001,2025-09-30_19h38.22.326,Visual Search,,2025.1.1,60.01925417312558,2025-09-30 19h38.35.536075 +0530,
145,0,145,[np.float64(-0.31296296296296294)],[np.float64(0.13333333333333333)],[0],[0],[1],[1.3748985000129323],['target'],145,0,145,0,337.96475900002406,,10,337.94908200000646,337.96475900002406,337.96475900002406,0.045207600021967664,339.32441160001326,[np.float64(-0.31296296296296294)],[np.float64(0.13333333333333333)],[0],[0],[1],[1.3748985000129323],['target'],001,001,2025-09-30_19h38.22.326,Visual Search,,2025.1.1,60.01925417312558,2025-09-30 19h38.35.536075 +0530,
146,0,146,[np.float64(-0.011111111111111112)],[np.float64(0.3907407407407407)],[0],[0],[1],[1.411209499987308],['target'],146,0,146,0,339.3702392000123,,5,339.3598247000191,339.3702392000123,339.3702392000123,0.034176999994087964,340.77125730001717,[np.float64(-0.011111111111111112)],[np.float64(0.3907407407407407)],[0],[0],[1],[1.411209499987308],['target'],001,001,2025-09-30_19h38.22.326,Visual Search,,2025.1.1,60.01925417312558,2025-09-30 19h38.35.536075 +0530,
147,0,147,"[np.float64(-0.011111111111111112), np.float64(-0.1574074074074074)]","[np.float64(0.3907407407407407), np.float64(0.2657407407407407)]","[0, 0]","[0, 0]","[1, 1]","[0.0005538999976124614, 1.807417500007432]","[None, 'target']",147,0,147,0,340.8302419000247,,10,340.81252600002335,340.8302419000247,340.8302419000247,0.04074220001348294,342.6200795000186,"[np.float64(-0.011111111111111112), np.float64(-0.1574074074074074)]","[np.float64(0.3907407407407407), np.float64(0.2657407407407407)]","[0, 0]","[0, 0]","[1, 1]","[0.0005538999976124614, 1.807417500007432]","[None, 'target']",001,001,2025-09-30_19h38.22.326,Visual Search,,2025.1.1,60.01925417312558,2025-09-30 19h38.35.536075 +0530,
148,0,148,"[np.float64(-0.1574074074074074), np.float64(-0.3731481481481482)]","[np.float64(0.2657407407407407), np.float64(0.11666666666666667)]","[0, 0]","[0, 0]","[1, 1]","[0.0006810000049881637, 1.8371552000171505]","[None, 'target']",148,0,148,0,342.6599195000017,,5,342.64857430002303,342.6599195000017,342.6599195000017,0.027982700004940853,344.4858890000032,"[np.float64(-0.1574074074074074), np.float64(-0.3731481481481482)]","[np.float64(0.2657407407407407), np.float64(0.11666666666666667)]","[0, 0]","[0, 0]","[1, 1]","[0.0006810000049881637, 1.8371552000171505]","[None, 'target']",001,001,2025-09-30_19h38.22.326,Visual Search,,2025.1.1,60.01925417312558,2025-09-30 19h38.35.536075 +0530,
149,0,149,"[np.float64(-0.3731481481481482), np.float64(-0.15833333333333333)]","[np.float64(0.11666666666666667), np.float64(0.16018518518518518)]","[0, 0]","[0, 0]","[1, 1]","[0.0007690000056754798, 2.028833599993959]","[None, 'target']",149,0,149,0,344.5394964000152,,10,344.5233703000122,344.5394964000152,344.5394964000152,0.03710779998800717,346.55230040001334,"[np.float64(-0.3731481481481482), np.float64(-0.15833333333333333)]","[np.float64(0.11666666666666667), np.float64(0.16018518518518518)]","[0, 0]","[0, 0]","[1, 1]","[0.0007690000056754798, 2.028833599993959]","[None, 'target']",001,001,2025-09-30_19h38.22.326,Visual Search,,2025.1.1,60.01925417312558,2025-09-30 19h38.35.536075 +0530,
150,0,150,"[np.float64(-0.15833333333333333), np.float64(0.3731481481481482)]","[np.float64(0.16018518518518518), np.float64(-0.019444444444444445)]","[0, 0]","[0, 0]","[1, 1]","[0.0007175999926403165, 6.3279426000081]","[None, 'target']",150,0,150,0,346.58298820001073,,5,346.57388050001464,346.58298820001073,346.58298820001073,0.021298900013789535,352.9021132000198,"[np.float64(-0.15833333333333333), np.float64(0.3731481481481482)]","[np.float64(0.16018518518518518), np.float64(-0.019444444444444445)]","[0, 0]","[0, 0]","[1, 1]","[0.0007175999926403165, 6.3279426000081]","[None, 'target']",001,001,2025-09-30_19h38.22.326,Visual Search,,2025.1.1,60.01925417312558,2025-09-30 19h38.35.536075 +0530,
151,0,151,"[np.float64(0.3731481481481482), np.float64(-0.12037037037037036)]","[np.float64(-0.019444444444444445), np.float64(-0.12222222222222222)]","[0, 0]","[0, 0]","[1, 1]","[0.0005512000061571598, 1.565383400011342]","[None, 'target']",151,0,151,0,352.94740780000575,,5,352.93685490000644,352.94740780000575,352.94740780000575,0.0339867000002414,354.5023235999979,"[np.float64(0.3731481481481482), np.float64(-0.12037037037037036)]","[np.float64(-0.019444444444444445), np.float64(-0.12222222222222222)]","[0, 0]","[0, 0]","[1, 1]","[0.0005512000061571598, 1.565383400011342]","[None, 'target']",001,001,2025-09-30_19h38.22.326,Visual Search,,2025.1.1,60.01925417312558,2025-09-30 19h38.35.536075 +0530,
152,0,152,"[np.float64(-0.12037037037037036), np.float64(0.26481481481481484)]","[np.float64(-0.12222222222222222), np.float64(0.05555555555555555)]","[0, 0]","[0, 0]","[1, 1]","[0.0006978000164963305, 1.659920800011605]","[None, 'target']",152,0,152,0,354.5351068000018,,5,354.52474810002604,354.5351068000018,354.5351068000018,0.022224500018637627,356.1847448000044,"[np.float64(-0.12037037037037036), np.float64(0.26481481481481484)]","[np.float64(-0.12222222222222222), np.float64(0.05555555555555555)]","[0, 0]","[0, 0]","[1, 1]","[0.0006978000164963305, 1.659920800011605]","[None, 'target']",001,001,2025-09-30_19h38.22.326,Visual Search,,2025.1.1,60.01925417312558,2025-09-30 19h38.35.536075 +0530,
153,0,153,[np.float64(0.11574074074074074)],[np.float64(0.47314814814814815)],[0],[0],[1],[2.217179200000828],['target'],153,0,153,0,356.21432070000446,,5,356.20429069999955,356.21432070000446,356.21432070000446,0.01930389998597093,358.4216978000186,[np.float64(0.11574074074074074)],[np.float64(0.47314814814814815)],[0],[0],[1],[2.217179200000828],['target'],001,001,2025-09-30_19h38.22.326,Visual Search,,2025.1.1,60.01925417312558,2025-09-30 19h38.35.536075 +0530,
154,0,154,"[np.float64(0.11574074074074074), np.float64(-0.4861111111111111)]","[np.float64(0.47314814814814815), np.float64(0.26944444444444443)]","[0, 0]","[0, 0]","[1, 1]","[0.0005706999800167978, 2.402461299992865]","[None, 'target']",154,0,154,0,358.4976329000201,,10,358.48150640001404,358.4976329000201,358.4976329000201,0.058890300017083064,360.88407320002443,"[np.float64(0.11574074074074074), np.float64(-0.4861111111111111)]","[np.float64(0.47314814814814815), np.float64(0.26944444444444443)]","[0, 0]","[0, 0]","[1, 1]","[0.0005706999800167978, 2.402461299992865]","[None, 'target']",001,001,2025-09-30_19h38.22.326,Visual Search,,2025.1.1,60.01925417312558,2025-09-30 19h38.35.536075 +0530,
155,0,155,"[np.float64(-0.4861111111111111), np.float64(0.03611111111111111)]","[np.float64(0.26944444444444443), np.float64(-0.4685185185185185)]","[0, 0]","[0, 0]","[1, 1]","[0.00076299998909235, 1.736035699985223]","[None, 'target']",155,0,155,0,360.93404610001016,,10,360.91687780001666,360.93404610001016,360.93404610001016,0.032563499989919364,362.65320570001495,"[np.float64(-0.4861111111111111), np.float64(0.03611111111111111)]","[np.float64(0.26944444444444443), np.float64(-0.4685185185185185)]","[0, 0]","[0, 0]","[1, 1]","[0.00076299998909235, 1.736035699985223]","[None, 'target']",001,001,2025-09-30_19h38.22.326,Visual Search,,2025.1.1,60.01925417312558,2025-09-30 19h38.35.536075 +0530,
156,0,156,"[np.float64(0.03611111111111111), np.float64(0.013888888888888888)]","[np.float64(-0.4685185185185185), np.float64(0.004629629629629629)]","[0, 0]","[0, 0]","[1, 1]","[0.001202299987198785, 1.4005524999811314]","[None, 'target']",156,0,156,0,362.7124298000126,,5,362.70044470002176,362.7124298000126,362.7124298000126,0.04629529998055659,364.1011111000262,"[np.float64(0.03611111111111111), np.float64(0.013888888888888888)]","[np.float64(-0.4685185185185185), np.float64(0.004629629629629629)]","[0, 0]","[0, 0]","[1, 1]","[0.001202299987198785, 1.4005524999811314]","[None, 'target']",001,001,2025-09-30_19h38.22.326,Visual Search,,2025.1.1,60.01925417312558,2025-09-30 19h38.35.536075 +0530,
157,0,157,[np.float64(0.044444444444444446)],[np.float64(-0.1425925925925926)],[0],[0],[1],[1.3625919999904],['target'],157,0,157,0,364.15555670001777,,10,364.1399444999988,364.15555670001777,364.15555670001777,0.03842100000474602,365.50274880000507,[np.float64(0.044444444444444446)],[np.float64(-0.1425925925925926)],[0],[0],[1],[1.3625919999904],['target'],001,001,2025-09-30_19h38.22.326,Visual Search,,2025.1.1,60.01925417312558,2025-09-30 19h38.35.536075 +0530,
158,0,158,[np.float64(-0.39814814814814814)],[np.float64(0.005555555555555556)],[0],[0],[1],[1.5317860000068322],['target'],158,0,158,0,365.546067200019,,5,365.5363677999994,365.546067200019,365.546067200019,0.032650899986037984,367.06828090001363,[np.float64(-0.39814814814814814)],[np.float64(0.005555555555555556)],[0],[0],[1],[1.5317860000068322],['target'],001,001,2025-09-30_19h38.22.326,Visual Search,,2025.1.1,60.01925417312558,2025-09-30 19h38.35.536075 +0530,
159,0,159,[np.float64(0.3861111111111111)],[np.float64(-0.3037037037037037)],[0],[0],[1],[1.7884917999908794],['target'],159,0,159,0,367.1069891000225,,5,367.09743030002574,367.1069891000225,367.1069891000225,0.02884260000428185,368.8862294999999,[np.float64(0.3861111111111111)],[np.float64(-0.3037037037037037)],[0],[0],[1],[1.7884917999908794],['target'],001,001,2025-09-30_19h38.22.326,Visual Search,,2025.1.1,60.01925417312558,2025-09-30 19h38.35.536075 +0530,
160,0,160,[np.float64(-0.2861111111111111)],[np.float64(0.412962962962963)],[0],[0],[1],[1.5739601000095718],['target'],160,0,160,0,368.9414657000161,,10,368.92611950001447,368.9414657000161,368.9414657000161,0.039212700008647516,370.500194000022,[np.float64(-0.2861111111111111)],[np.float64(0.412962962962963)],[0],[0],[1],[1.5739601000095718],['target'],001,001,2025-09-30_19h38.22.326,Visual Search,,2025.1.1,60.01925417312558,2025-09-30 19h38.35.536075 +0530,
161,0,161,"[np.float64(-0.2861111111111111), np.float64(-0.27314814814814814)]","[np.float64(0.412962962962963), np.float64(-0.36666666666666664)]","[0, 0]","[0, 0]","[1, 1]","[0.0007187000010162592, 1.5832049000018742]","[None, 'target']",161,0,161,0,370.5291819999984,,5,370.518224200001,370.5291819999984,370.5291819999984,0.017824699985794723,372.10164390000864,"[np.float64(-0.2861111111111111), np.float64(-0.27314814814814814)]","[np.float64(0.412962962962963), np.float64(-0.36666666666666664)]","[0, 0]","[0, 0]","[1, 1]","[0.0007187000010162592, 1.5832049000018742]","[None, 'target']",001,001,2025-09-30_19h38.22.326,Visual Search,,2025.1.1,60.01925417312558,2025-09-30 19h38.35.536075 +0530,
162,0,162,[np.float64(-0.487962962962963)],[np.float64(0.09166666666666666)],[0],[0],[1],[1.616520399984438],['target'],162,0,162,0,372.15021640001214,,10,372.13388400000986,372.15021640001214,372.15021640001214,0.031199999997625127,373.75054920002003,[np.float64(-0.487962962962963)],[np.float64(0.09166666666666666)],[0],[0],[1],[1.616520399984438],['target'],001,001,2025-09-30_19h38.22.326,Visual Search,,2025.1.1,60.01925417312558,2025-09-30 19h38.35.536075 +0530,
