thisN,thisTrialN,thisRepN,key_resp.keys,key_resp.corr,key_resp.rt,key_resp.duration,tilt,trials.thisRepN,trials.thisTrialN,trials.thisN,trials.thisIndex,thisRow.t,notes,trial.started,Fixation.started,Fixation.stopped,key_resp.started,trial.stopped,trials.key_resp.keys,trials.key_resp.corr,trials.key_resp.rt,trials.key_resp.duration,trials.tilt,participant,session,date,expName,expVersion,psychopyVersion,frameRate,expStart
0,0,0,up,1,0.5915098,None,0,0,0,0,0,0.007617,,0.0038845,0.007617,1.0465073,1.0465073,1.7415422,up,1,0.5915098,None,0,1,1,2025-09-03_21h54.08.600,orientation discrimination task,,2025.1.1,60.00726088,2025-09-03 21h54.19.745771 +0530
1,0,1,up,0,0.4796279,None,0,1,0,1,0,1.7450774,,1.7417877,1.7450774,2.7598106,2.7429303,3.2280864,up,0,0.4796279,None,0,1,1,2025-09-03_21h54.08.600,orientation discrimination task,,2025.1.1,60.00726088,2025-09-03 21h54.19.745771 +0530
2,0,2,down,0,0.4222277,None,0,2,0,2,0,3.24301,,3.2290399,3.24301,4.2430301,4.2430301,4.6777373,down,0,0.4222277,None,0,1,1,2025-09-03_21h54.08.600,orientation discrimination task,,2025.1.1,60.00726088,2025-09-03 21h54.19.745771 +0530
3,0,3,up,1,0.5904795,None,0,3,0,3,0,4.6929376,,4.6787463,4.6929376,5.6928469,5.6928469,6.2940217,up,1,0.5904795,None,0,1,1,2025-09-03_21h54.08.600,orientation discrimination task,,2025.1.1,60.00726088,2025-09-03 21h54.19.745771 +0530
4,0,4,up,0,0.3430238,None,0,4,0,4,0,6.3095088,,6.2951889,6.3095088,7.3093908,7.3093908,7.6607768,up,0,0.3430238,None,0,1,1,2025-09-03_21h54.08.600,orientation discrimination task,,2025.1.1,60.00726088,2025-09-03 21h54.19.745771 +0530
5,0,5,up,1,0.4815547,None,0,5,0,5,0,7.6761508,,7.661939,7.6761508,8.6761323,8.6761323,9.160819,up,1,0.4815547,None,0,1,1,2025-09-03_21h54.08.600,orientation discrimination task,,2025.1.1,60.00726088,2025-09-03 21h54.19.745771 +0530
6,0,6,up,1,0.4490445,None,0,6,0,6,0,9.1758893,,9.162082,9.1758893,10.1755541,10.1755541,10.628472,up,1,0.4490445,None,0,1,1,2025-09-03_21h54.08.600,orientation discrimination task,,2025.1.1,60.00726088,2025-09-03 21h54.19.745771 +0530
7,0,7,down,1,0.2877298,None,-4,7,0,7,0,10.6424123,,10.6304967,10.6424123,11.6425011,11.6425011,11.943545,down,1,0.2877298,None,-4,1,1,2025-09-03_21h54.08.600,orientation discrimination task,,2025.1.1,60.00726088,2025-09-03 21h54.19.745771 +0530
8,0,8,up,1,0.6244959,None,0,8,0,8,0,11.958991,,11.9446674,11.958991,12.9590978,12.9590978,13.5933411,up,1,0.6244959,None,0,1,1,2025-09-03_21h54.08.600,orientation discrimination task,,2025.1.1,60.00726088,2025-09-03 21h54.19.745771 +0530
9,0,9,down,1,0.6438828,None,1,9,0,9,0,13.6088813,,13.5944587,13.6088813,14.6087903,14.6087903,15.2599814,down,1,0.6438828,None,1,1,1,2025-09-03_21h54.08.600,orientation discrimination task,,2025.1.1,60.00726088,2025-09-03 21h54.19.745771 +0530
10,0,10,down,1,0.6278271,None,-2,10,0,10,0,15.2752946,,15.2612626,15.2752946,16.2746582,16.2746582,16.9092344,down,1,0.6278271,None,-2,1,1,2025-09-03_21h54.08.600,orientation discrimination task,,2025.1.1,60.00726088,2025-09-03 21h54.19.745771 +0530
11,0,11,up,0,0.3684053,None,3,11,0,11,0,16.9249192,,16.9103777,16.9249192,17.9247817,17.9247817,18.3088125,up,0,0.3684053,None,3,1,1,2025-09-03_21h54.08.600,orientation discrimination task,,2025.1.1,60.00726088,2025-09-03 21h54.19.745771 +0530
12,0,12,up,1,0.5150913,None,0,12,0,12,0,18.3245884,,18.3094419,18.3245884,19.3249557,19.3083205,19.8275203,up,1,0.5150913,None,0,1,1,2025-09-03_21h54.08.600,orientation discrimination task,,2025.1.1,60.00726088,2025-09-03 21h54.19.745771 +0530
13,0,13,down,1,0.3580866,None,3,13,0,13,0,19.8415355,,19.829544,19.8415355,20.841491,20.841491,21.2094359,down,1,0.3580866,None,3,1,1,2025-09-03_21h54.08.600,orientation discrimination task,,2025.1.1,60.00726088,2025-09-03 21h54.19.745771 +0530
14,0,14,up,1,0.4839838,None,0,14,0,14,0,21.2247655,,21.2107293,21.2247655,22.2246923,22.2246923,22.7103948,up,1,0.4839838,None,0,1,1,2025-09-03_21h54.08.600,orientation discrimination task,,2025.1.1,60.00726088,2025-09-03 21h54.19.745771 +0530
15,0,15,down,1,0.5175426,None,-4,15,0,15,0,22.724521,,22.7116326,22.724521,23.7245798,23.7245798,24.2585257,down,1,0.5175426,None,-4,1,1,2025-09-03_21h54.08.600,orientation discrimination task,,2025.1.1,60.00726088,2025-09-03 21h54.19.745771 +0530
16,0,16,up,1,0.3426159,None,0,16,0,16,0,24.2743828,,24.2595596,24.2743828,25.2744488,25.2576963,25.6087214,up,1,0.3426159,None,0,1,1,2025-09-03_21h54.08.600,orientation discrimination task,,2025.1.1,60.00726088,2025-09-03 21h54.19.745771 +0530
17,0,17,down,1,0.4206817,None,2,17,0,17,0,25.6242541,,25.6100586,25.6242541,26.6242967,26.6242967,27.0587743,down,1,0.4206817,None,2,1,1,2025-09-03_21h54.08.600,orientation discrimination task,,2025.1.1,60.00726088,2025-09-03 21h54.19.745771 +0530
18,0,18,up,1,0.3118783,None,0,18,0,18,0,27.0740544,,27.0597892,27.0740544,28.0737031,28.0737031,28.391024,up,1,0.3118783,None,0,1,1,2025-09-03_21h54.08.600,orientation discrimination task,,2025.1.1,60.00726088,2025-09-03 21h54.19.745771 +0530
19,0,19,down,0,0.3582732,None,0,19,0,19,0,28.407104,,28.3916506,28.407104,29.4073549,29.3906563,29.758509,down,0,0.3582732,None,0,1,1,2025-09-03_21h54.08.600,orientation discrimination task,,2025.1.1,60.00726088,2025-09-03 21h54.19.745771 +0530
20,0,20,up,1,0.6739774,None,0,20,0,20,0,29.7739123,,29.7596809,29.7739123,30.7738718,30.7738718,31.4574614,up,1,0.6739774,None,0,1,1,2025-09-03_21h54.08.600,orientation discrimination task,,2025.1.1,60.00726088,2025-09-03 21h54.19.745771 +0530
21,0,21,up,0,0.4657879,None,0,21,0,21,0,31.4732182,,31.458145,31.4732182,32.4735464,32.457016,32.92505,up,0,0.4657879,None,0,1,1,2025-09-03_21h54.08.600,orientation discrimination task,,2025.1.1,60.00726088,2025-09-03 21h54.19.745771 +0530
22,0,22,down,1,0.5572585,None,-3,22,0,22,0,32.940188,,32.9262479,32.940188,33.939854,33.939854,34.5072958,down,1,0.5572585,None,-3,1,1,2025-09-03_21h54.08.600,orientation discrimination task,,2025.1.1,60.00726088,2025-09-03 21h54.19.745771 +0530
23,0,23,up,1,0.8857524,None,0,23,0,23,0,34.5229617,,34.50792,34.5229617,35.5232437,35.50678,36.4068038,up,1,0.8857524,None,0,1,1,2025-09-03_21h54.08.600,orientation discrimination task,,2025.1.1,60.00726088,2025-09-03 21h54.19.745771 +0530
24,0,24,up,0,0.6370669,None,2,24,0,24,0,36.422691,,36.407356,36.422691,37.4230304,37.4065313,38.0578233,up,0,0.6370669,None,2,1,1,2025-09-03_21h54.08.600,orientation discrimination task,,2025.1.1,60.00726088,2025-09-03 21h54.19.745771 +0530
25,0,25,up,0,0.6104009,None,3,25,0,25,0,38.0730036,,38.0590451,38.0730036,39.072939,39.072939,39.6909149,up,0,0.6104009,None,3,1,1,2025-09-03_21h54.08.600,orientation discrimination task,,2025.1.1,60.00726088,2025-09-03 21h54.19.745771 +0530
26,0,26,down,0,1.0844031,None,0,26,0,26,0,39.7062645,,39.691938,39.7062645,40.706157,40.706157,41.8072992,down,0,1.0844031,None,0,1,1,2025-09-03_21h54.08.600,orientation discrimination task,,2025.1.1,60.00726088,2025-09-03 21h54.19.745771 +0530
27,0,27,down,1,11.9806303,None,4,27,0,27,0,41.8225388,,41.8084524,41.8225388,42.8227569,42.8227569,54.8070809,down,1,11.9806303,None,4,1,1,2025-09-03_21h54.08.600,orientation discrimination task,,2025.1.1,60.00726088,2025-09-03 21h54.19.745771 +0530
28,0,28,up,1,0.7327839,None,0,28,0,28,0,54.8213779,,54.8089573,54.8213779,55.8214112,55.8214112,56.556215,up,1,0.7327839,None,0,1,1,2025-09-03_21h54.08.600,orientation discrimination task,,2025.1.1,60.00726088,2025-09-03 21h54.19.745771 +0530
29,0,29,up,1,0.9303744,None,0,29,0,29,0,56.5712893,,56.5573254,56.5712893,57.5711863,57.5711863,58.5073685,up,1,0.9303744,None,0,1,1,2025-09-03_21h54.08.600,orientation discrimination task,,2025.1.1,60.00726088,2025-09-03 21h54.19.745771 +0530
30,0,30,up,1,0.581856,None,0,30,0,30,0,58.5209911,,58.5087758,58.5209911,59.5206741,59.5206741,60.1055361,up,1,0.581856,None,0,1,1,2025-09-03_21h54.08.600,orientation discrimination task,,2025.1.1,60.00726088,2025-09-03 21h54.19.745771 +0530
31,0,31,down,1,0.4659959,None,-2,31,0,31,0,60.1208052,,60.1067015,60.1208052,61.1208894,61.1208894,61.5890199,down,1,0.4659959,None,-2,1,1,2025-09-03_21h54.08.600,orientation discrimination task,,2025.1.1,60.00726088,2025-09-03 21h54.19.745771 +0530
32,0,32,down,0,0.7867834,None,0,32,0,32,0,61.6040148,,61.5901762,61.6040148,62.6040531,62.6040531,63.4051452,down,0,0.7867834,None,0,1,1,2025-09-03_21h54.08.600,orientation discrimination task,,2025.1.1,60.00726088,2025-09-03 21h54.19.745771 +0530
33,0,33,down,1,0.7358751,None,1,33,0,33,0,63.4205041,,63.4062464,63.4205041,64.4205623,64.4205623,65.1716232,down,1,0.7358751,None,1,1,1,2025-09-03_21h54.08.600,orientation discrimination task,,2025.1.1,60.00726088,2025-09-03 21h54.19.745771 +0530
34,0,34,down,1,1.0096404,None,0,34,0,34,0,65.1870374,,65.1727238,65.1870374,66.1869065,66.1869065,67.2046301,down,1,1.0096404,None,0,1,1,2025-09-03_21h54.08.600,orientation discrimination task,,2025.1.1,60.00726088,2025-09-03 21h54.19.745771 +0530
35,0,35,down,0,0.8182627,None,0,35,0,35,0,67.2202331,,67.2055941,67.2202331,68.2201649,68.2201649,69.0544894,down,0,0.8182627,None,0,1,1,2025-09-03_21h54.08.600,orientation discrimination task,,2025.1.1,60.00726088,2025-09-03 21h54.19.745771 +0530
36,0,36,up,1,0.4975104,None,0,36,0,36,0,69.0699492,,69.0555052,69.0699492,70.0701839,70.0701839,70.5713567,up,1,0.4975104,None,0,1,1,2025-09-03_21h54.08.600,orientation discrimination task,,2025.1.1,60.00726088,2025-09-03 21h54.19.745771 +0530
37,0,37,down,1,0.69212,None,4,37,0,37,0,70.586442,,70.5726111,70.586442,71.5855528,71.5855528,72.2875151,down,1,0.69212,None,4,1,1,2025-09-03_21h54.08.600,orientation discrimination task,,2025.1.1,60.00726088,2025-09-03 21h54.19.745771 +0530
38,0,38,up,0,1.0928658,None,-1,38,0,38,0,72.3029285,,72.2886199,72.3029285,73.3028465,73.3028465,74.4039745,up,0,1.0928658,None,-1,1,1,2025-09-03_21h54.08.600,orientation discrimination task,,2025.1.1,60.00726088,2025-09-03 21h54.19.745771 +0530
39,0,39,down,1,0.6747415,None,2,39,0,39,0,74.4195149,,74.4052024,74.4195149,75.4194498,75.4194498,76.1033954,down,1,0.6747415,None,2,1,1,2025-09-03_21h54.08.600,orientation discrimination task,,2025.1.1,60.00726088,2025-09-03 21h54.19.745771 +0530
40,0,40,up,1,0.6768503,None,0,40,0,40,0,76.1186555,,76.1041433,76.1186555,77.1192918,77.1192918,77.8036396,up,1,0.6768503,None,0,1,1,2025-09-03_21h54.08.600,orientation discrimination task,,2025.1.1,60.00726088,2025-09-03 21h54.19.745771 +0530
41,0,41,up,0,0.7473935,None,-1,41,0,41,0,77.8190964,,77.8047711,77.8190964,78.8190994,78.8190994,79.5713764,up,0,0.7473935,None,-1,1,1,2025-09-03_21h54.08.600,orientation discrimination task,,2025.1.1,60.00726088,2025-09-03 21h54.19.745771 +0530
42,0,42,down,1,0.6990204,None,-3,42,0,42,0,79.5855818,,79.5731107,79.5855818,80.5855424,80.5855424,81.2878135,down,1,0.6990204,None,-3,1,1,2025-09-03_21h54.08.600,orientation discrimination task,,2025.1.1,60.00726088,2025-09-03 21h54.19.745771 +0530
43,0,43,up,1,0.6199598,None,0,43,0,43,0,81.3021048,,81.2896857,81.3021048,82.301528,82.301528,82.9364819,up,1,0.6199598,None,0,1,1,2025-09-03_21h54.08.600,orientation discrimination task,,2025.1.1,60.00726088,2025-09-03 21h54.19.745771 +0530
44,0,44,up,1,0.6387179,None,0,44,0,44,0,82.9519397,,82.9374482,82.9519397,83.9519869,83.9519869,84.6030757,up,1,0.6387179,None,0,1,1,2025-09-03_21h54.08.600,orientation discrimination task,,2025.1.1,60.00726088,2025-09-03 21h54.19.745771 +0530
45,0,45,up,0,0.6372949,None,-1,45,0,45,0,84.6184005,,84.6043081,84.6184005,85.6184232,85.6184232,86.2702541,up,0,0.6372949,None,-1,1,1,2025-09-03_21h54.08.600,orientation discrimination task,,2025.1.1,60.00726088,2025-09-03 21h54.19.745771 +0530
46,0,46,up,1,0.6069317,None,0,46,0,46,0,86.2845247,,86.271536,86.2845247,87.2848926,87.2848926,87.9027368,up,1,0.6069317,None,0,1,1,2025-09-03_21h54.08.600,orientation discrimination task,,2025.1.1,60.00726088,2025-09-03 21h54.19.745771 +0530
47,0,47,up,1,0.6526505,None,0,47,0,47,0,87.9180889,,87.9037462,87.9180889,88.918072,88.918072,89.5857953,up,1,0.6526505,None,0,1,1,2025-09-03_21h54.08.600,orientation discrimination task,,2025.1.1,60.00726088,2025-09-03 21h54.19.745771 +0530
48,0,48,down,1,0.5601239,None,-4,48,0,48,0,89.6011937,,89.5868561,89.6011937,90.6012076,90.6012076,91.1689465,down,1,0.5601239,None,-4,1,1,2025-09-03_21h54.08.600,orientation discrimination task,,2025.1.1,60.00726088,2025-09-03 21h54.19.745771 +0530
49,0,49,down,0,0.6196113,None,0,49,0,49,0,91.1844267,,91.1699256,91.1844267,92.1843605,92.1843605,92.8189623,down,0,0.6196113,None,0,1,1,2025-09-03_21h54.08.600,orientation discrimination task,,2025.1.1,60.00726088,2025-09-03 21h54.19.745771 +0530
50,0,50,up,1,0.5739733,None,0,50,0,50,0,92.8342821,,92.8202024,92.8342821,93.8342446,93.8342446,94.4176925,up,1,0.5739733,None,0,1,1,2025-09-03_21h54.08.600,orientation discrimination task,,2025.1.1,60.00726088,2025-09-03 21h54.19.745771 +0530
51,0,51,up,1,0.6370461,None,0,51,0,51,0,94.43361,,94.4182459,94.43361,95.4340987,95.4173806,96.0684254,up,1,0.6370461,None,0,1,1,2025-09-03_21h54.08.600,orientation discrimination task,,2025.1.1,60.00726088,2025-09-03 21h54.19.745771 +0530
52,0,52,up,1,0.3945622,None,0,52,0,52,0,96.0839073,,96.0695067,96.0839073,97.083909,97.083909,97.4853274,up,1,0.3945622,None,0,1,1,2025-09-03_21h54.08.600,orientation discrimination task,,2025.1.1,60.00726088,2025-09-03 21h54.19.745771 +0530
53,0,53,up,0,0.409572,None,0,53,0,53,0,97.5004422,,97.4865299,97.5004422,98.50048,98.50048,98.9180912,up,0,0.409572,None,0,1,1,2025-09-03_21h54.08.600,orientation discrimination task,,2025.1.1,60.00726088,2025-09-03 21h54.19.745771 +0530
54,0,54,up,1,0.6395046,None,0,54,0,54,0,98.9335981,,98.9190624,98.9335981,99.9338694,99.9338694,100.5847136,up,1,0.6395046,None,0,1,1,2025-09-03_21h54.08.600,orientation discrimination task,,2025.1.1,60.00726088,2025-09-03 21h54.19.745771 +0530
55,0,55,down,1,0.3908673,None,4,55,0,55,0,100.6000993,,100.585845,100.6000993,101.6001862,101.6001862,102.0011587,down,1,0.3908673,None,4,1,1,2025-09-03_21h54.08.600,orientation discrimination task,,2025.1.1,60.00726088,2025-09-03 21h54.19.745771 +0530
56,0,56,up,0,0.6395968,None,0,56,0,56,0,102.016838,,102.0022306,102.016838,103.0166836,103.0166836,103.6677258,up,0,0.6395968,None,0,1,1,2025-09-03_21h54.08.600,orientation discrimination task,,2025.1.1,60.00726088,2025-09-03 21h54.19.745771 +0530
57,0,57,up,1,0.7487175,None,0,57,0,57,0,103.683084,,103.6686925,103.683084,104.6827738,104.6827738,105.4350747,up,1,0.7487175,None,0,1,1,2025-09-03_21h54.08.600,orientation discrimination task,,2025.1.1,60.00726088,2025-09-03 21h54.19.745771 +0530
58,0,58,down,1,0.5056142,None,-2,58,0,58,0,105.449673,,105.4370363,105.449673,106.4497463,106.4497463,106.9674775,down,1,0.5056142,None,-2,1,1,2025-09-03_21h54.08.600,orientation discrimination task,,2025.1.1,60.00726088,2025-09-03 21h54.19.745771 +0530
59,0,59,down,1,0.606377,None,-3,59,0,59,0,106.9827131,,106.9685781,106.9827131,107.9826955,107.9826955,108.600742,down,1,0.606377,None,-3,1,1,2025-09-03_21h54.08.600,orientation discrimination task,,2025.1.1,60.00726088,2025-09-03 21h54.19.745771 +0530
60,0,60,down,1,0.3831565,None,-3,60,0,60,0,108.6160405,,108.6018519,108.6160405,109.6159631,109.6159631,110.0018302,down,1,0.3831565,None,-3,1,1,2025-09-03_21h54.08.600,orientation discrimination task,,2025.1.1,60.00726088,2025-09-03 21h54.19.745771 +0530
61,0,61,down,1,0.5993366,None,4,61,0,61,0,110.0158947,,110.0037913,110.0158947,111.015844,111.015844,111.6173545,down,1,0.5993366,None,4,1,1,2025-09-03_21h54.08.600,orientation discrimination task,,2025.1.1,60.00726088,2025-09-03 21h54.19.745771 +0530
62,0,62,down,1,0.5268088,None,4,62,0,62,0,111.6325326,,111.6185962,111.6325326,112.6318822,112.6318822,113.1668227,down,1,0.5268088,None,4,1,1,2025-09-03_21h54.08.600,orientation discrimination task,,2025.1.1,60.00726088,2025-09-03 21h54.19.745771 +0530
63,0,63,up,1,0.633364,None,0,63,0,63,0,113.1823473,,113.1679299,113.1823473,114.1822465,114.1822465,114.8175403,up,1,0.633364,None,0,1,1,2025-09-03_21h54.08.600,orientation discrimination task,,2025.1.1,60.00726088,2025-09-03 21h54.19.745771 +0530
64,0,64,down,1,0.6722346,None,3,64,0,64,0,114.8320696,,114.818805,114.8320696,115.8318582,115.8318582,116.5166438,down,1,0.6722346,None,3,1,1,2025-09-03_21h54.08.600,orientation discrimination task,,2025.1.1,60.00726088,2025-09-03 21h54.19.745771 +0530
65,0,65,down,1,0.6827851,None,4,65,0,65,0,116.5319542,,116.517946,116.5319542,117.5317432,117.5317432,118.2167488,down,1,0.6827851,None,4,1,1,2025-09-03_21h54.08.600,orientation discrimination task,,2025.1.1,60.00726088,2025-09-03 21h54.19.745771 +0530
66,0,66,up,0,0.6622364,None,-3,66,0,66,0,118.2318594,,118.2181018,118.2318594,119.2317442,119.2317442,119.9004076,up,0,0.6622364,None,-3,1,1,2025-09-03_21h54.08.600,orientation discrimination task,,2025.1.1,60.00726088,2025-09-03 21h54.19.745771 +0530
67,0,67,down,1,0.7639293,None,0,67,0,67,0,119.9149021,,119.9017356,119.9149021,120.9148529,120.9148529,121.6828756,down,1,0.7639293,None,0,1,1,2025-09-03_21h54.08.600,orientation discrimination task,,2025.1.1,60.00726088,2025-09-03 21h54.19.745771 +0530
68,0,68,up,0,0.8084335,None,3,68,0,68,0,121.6979153,,121.6842076,121.6979153,122.6980683,122.6980683,123.5158679,up,0,0.8084335,None,3,1,1,2025-09-03_21h54.08.600,orientation discrimination task,,2025.1.1,60.00726088,2025-09-03 21h54.19.745771 +0530
69,0,69,down,1,0.7044315,None,-2,69,0,69,0,123.5311901,,123.5169425,123.5311901,124.5312524,124.5312524,125.2490827,down,1,0.7044315,None,-2,1,1,2025-09-03_21h54.08.600,orientation discrimination task,,2025.1.1,60.00726088,2025-09-03 21h54.19.745771 +0530
70,0,70,up,0,1.2534912,None,3,70,0,70,0,125.2643757,,125.250442,125.2643757,126.2643439,126.2643439,127.5309933,up,0,1.2534912,None,3,1,1,2025-09-03_21h54.08.600,orientation discrimination task,,2025.1.1,60.00726088,2025-09-03 21h54.19.745771 +0530
71,0,71,up,1,0.6604498,None,0,71,0,71,0,127.5466692,,127.5316491,127.5466692,128.5470207,128.5470207,129.2138697,up,1,0.6604498,None,0,1,1,2025-09-03_21h54.08.600,orientation discrimination task,,2025.1.1,60.00726088,2025-09-03 21h54.19.745771 +0530
72,0,72,down,1,0.605558,None,4,72,0,72,0,129.2308637,,129.2144132,129.2308637,130.230235,130.2136447,130.8317083,down,1,0.605558,None,4,1,1,2025-09-03_21h54.08.600,orientation discrimination task,,2025.1.1,60.00726088,2025-09-03 21h54.19.745771 +0530
73,0,73,down,1,0.5529025,None,-3,73,0,73,0,130.8470986,,130.8327962,130.8470986,131.847118,131.847118,132.4148411,down,1,0.5529025,None,-3,1,1,2025-09-03_21h54.08.600,orientation discrimination task,,2025.1.1,60.00726088,2025-09-03 21h54.19.745771 +0530
74,0,74,down,0,0.7345142,None,0,74,0,74,0,132.4302838,,132.4158601,132.4302838,133.4303301,133.4303301,134.1816552,down,0,0.7345142,None,0,1,1,2025-09-03_21h54.08.600,orientation discrimination task,,2025.1.1,60.00726088,2025-09-03 21h54.19.745771 +0530
75,0,75,up,0,0.4363328,None,1,75,0,75,0,134.1968121,,134.1827409,134.1968121,135.1968098,135.1968098,135.6478797,up,0,0.4363328,None,1,1,1,2025-09-03_21h54.08.600,orientation discrimination task,,2025.1.1,60.00726088,2025-09-03 21h54.19.745771 +0530
76,0,76,up,1,0.727507,None,0,76,0,76,0,135.6632204,,135.6488899,135.6632204,136.6631753,136.6631753,137.3976963,up,1,0.727507,None,0,1,1,2025-09-03_21h54.08.600,orientation discrimination task,,2025.1.1,60.00726088,2025-09-03 21h54.19.745771 +0530
77,0,77,up,1,0.6756863,None,0,77,0,77,0,137.4130813,,137.3989259,137.4130813,138.4130225,138.4130225,139.0975407,up,1,0.6756863,None,0,1,1,2025-09-03_21h54.08.600,orientation discrimination task,,2025.1.1,60.00726088,2025-09-03 21h54.19.745771 +0530
78,0,78,up,1,0.5213868,None,0,78,0,78,0,139.1129675,,139.0985431,139.1129675,140.1129687,140.1129687,140.6473796,up,1,0.5213868,None,0,1,1,2025-09-03_21h54.08.600,orientation discrimination task,,2025.1.1,60.00726088,2025-09-03 21h54.19.745771 +0530
79,0,79,up,0,0.966864,None,2,79,0,79,0,140.6627039,,140.6484633,140.6627039,141.6626944,141.6626944,142.6315193,up,0,0.966864,None,2,1,1,2025-09-03_21h54.08.600,orientation discrimination task,,2025.1.1,60.00726088,2025-09-03 21h54.19.745771 +0530
80,0,80,up,1,0.6816144,None,0,80,0,80,0,142.6459348,,142.6324934,142.6459348,143.6460147,143.6460147,144.330734,up,1,0.6816144,None,0,1,1,2025-09-03_21h54.08.600,orientation discrimination task,,2025.1.1,60.00726088,2025-09-03 21h54.19.745771 +0530
81,0,81,up,1,2.3727162,None,0,81,0,81,0,144.3457949,,144.3317784,144.3457949,145.3457912,145.3457912,147.7300616,up,1,2.3727162,None,0,1,1,2025-09-03_21h54.08.600,orientation discrimination task,,2025.1.1,60.00726088,2025-09-03 21h54.19.745771 +0530
82,0,82,up,1,0.7739486,None,0,82,0,82,0,147.7454865,,147.7313176,147.7454865,148.7455442,148.7455442,149.5300144,up,1,0.7739486,None,0,1,1,2025-09-03_21h54.08.600,orientation discrimination task,,2025.1.1,60.00726088,2025-09-03 21h54.19.745771 +0530
83,0,83,up,1,0.5695262,None,0,83,0,83,0,149.5452878,,149.5312539,149.5452878,150.5453113,150.5453113,151.1296806,up,1,0.5695262,None,0,1,1,2025-09-03_21h54.08.600,orientation discrimination task,,2025.1.1,60.00726088,2025-09-03 21h54.19.745771 +0530
84,0,84,down,1,0.6010736,None,4,84,0,84,0,151.1450932,,151.1309576,151.1450932,152.1450971,152.1450971,152.7628589,down,1,0.6010736,None,4,1,1,2025-09-03_21h54.08.600,orientation discrimination task,,2025.1.1,60.00726088,2025-09-03 21h54.19.745771 +0530
85,0,85,down,1,0.5816212,None,-2,85,0,85,0,152.7782968,,152.7639201,152.7782968,153.7782846,153.7782846,154.3640528,down,1,0.5816212,None,-2,1,1,2025-09-03_21h54.08.600,orientation discrimination task,,2025.1.1,60.00726088,2025-09-03 21h54.19.745771 +0530
86,0,86,up,1,0.7573232,None,0,86,0,86,0,154.3781152,,154.365956,154.3781152,155.3781471,155.3781471,156.1450455,up,1,0.7573232,None,0,1,1,2025-09-03_21h54.08.600,orientation discrimination task,,2025.1.1,60.00726088,2025-09-03 21h54.19.745771 +0530
87,0,87,up,0,0.567283,None,-1,87,0,87,0,156.1609406,,156.1457309,156.1609406,157.1613045,157.1447099,157.7282332,up,0,0.567283,None,-1,1,1,2025-09-03_21h54.08.600,orientation discrimination task,,2025.1.1,60.00726088,2025-09-03 21h54.19.745771 +0530
88,0,88,up,1,0.6891744,None,0,88,0,88,0,157.7440983,,157.7288459,157.7440983,158.7444482,158.7278484,159.4289791,up,1,0.6891744,None,0,1,1,2025-09-03_21h54.08.600,orientation discrimination task,,2025.1.1,60.00726088,2025-09-03 21h54.19.745771 +0530
89,0,89,up,1,0.5921426,None,0,89,0,89,0,159.4442828,,159.4303341,159.4442828,160.4442907,160.4442907,161.0453652,up,1,0.5921426,None,0,1,1,2025-09-03_21h54.08.600,orientation discrimination task,,2025.1.1,60.00726088,2025-09-03 21h54.19.745771 +0530
90,0,90,up,1,0.5884381,None,0,90,0,90,0,161.0608164,,161.0463512,161.0608164,162.0607801,162.0607801,162.6618355,up,1,0.5884381,None,0,1,1,2025-09-03_21h54.08.600,orientation discrimination task,,2025.1.1,60.00726088,2025-09-03 21h54.19.745771 +0530
91,0,91,down,1,0.4762109,None,3,91,0,91,0,162.6772602,,162.6628657,162.6772602,163.677325,163.677325,164.1616809,down,1,0.4762109,None,3,1,1,2025-09-03_21h54.08.600,orientation discrimination task,,2025.1.1,60.00726088,2025-09-03 21h54.19.745771 +0530
92,0,92,down,1,0.5620223,None,4,92,0,92,0,164.1771684,,164.1627525,164.1771684,165.1770447,165.1770447,165.7448357,down,1,0.5620223,None,4,1,1,2025-09-03_21h54.08.600,orientation discrimination task,,2025.1.1,60.00726088,2025-09-03 21h54.19.745771 +0530
93,0,93,up,1,0.7186658,None,0,93,0,93,0,165.7603063,,165.745919,165.7603063,166.7603479,166.7603479,167.4947439,up,1,0.7186658,None,0,1,1,2025-09-03_21h54.08.600,orientation discrimination task,,2025.1.1,60.00726088,2025-09-03 21h54.19.745771 +0530
94,0,94,up,1,0.6863055,None,0,94,0,94,0,167.5101605,,167.4957051,167.5101605,168.5101294,168.5101294,169.2112491,up,1,0.6863055,None,0,1,1,2025-09-03_21h54.08.600,orientation discrimination task,,2025.1.1,60.00726088,2025-09-03 21h54.19.745771 +0530
95,0,95,down,1,0.6408722,None,4,95,0,95,0,169.226752,,169.212293,169.226752,170.2265849,170.2265849,170.8781901,down,1,0.6408722,None,4,1,1,2025-09-03_21h54.08.600,orientation discrimination task,,2025.1.1,60.00726088,2025-09-03 21h54.19.745771 +0530
96,0,96,up,1,1.1681823,None,0,96,0,96,0,170.8931233,,170.8793019,170.8931233,171.8929607,171.8929607,173.0774761,up,1,1.1681823,None,0,1,1,2025-09-03_21h54.08.600,orientation discrimination task,,2025.1.1,60.00726088,2025-09-03 21h54.19.745771 +0530
97,0,97,up,0,0.9467766,None,1,97,0,97,0,173.0928038,,173.0785597,173.0928038,174.0927944,174.0927944,175.0452658,up,0,0.9467766,None,1,1,1,2025-09-03_21h54.08.600,orientation discrimination task,,2025.1.1,60.00726088,2025-09-03 21h54.19.745771 +0530
98,0,98,down,1,0.845029,None,3,98,0,98,0,175.0594145,,175.04667,175.0594145,176.0589633,176.0589633,176.9106184,down,1,0.845029,None,3,1,1,2025-09-03_21h54.08.600,orientation discrimination task,,2025.1.1,60.00726088,2025-09-03 21h54.19.745771 +0530
99,0,99,up,1,0.6310306,None,0,99,0,99,0,176.9259487,,176.9118984,176.9259487,177.9258614,177.9258614,178.561686,up,1,0.6310306,None,0,1,1,2025-09-03_21h54.08.600,orientation discrimination task,,2025.1.1,60.00726088,2025-09-03 21h54.19.745771 +0530
