thisN,thisTrialN,thisRepN,mouse.x,mouse.y,mouse.leftButton,mouse.midButton,mouse.rightButton,mouse.time,mouse.clicked_name,trials.thisRepN,trials.thisTrialN,trials.thisN,trials.thisIndex,thisRow.t,notes,num_distr,trial.started,Fixation.started,target.started,mouse.started,trial.stopped,trials.mouse.x,trials.mouse.y,trials.mouse.leftButton,trials.mouse.midButton,trials.mouse.rightButton,trials.mouse.time,trials.mouse.clicked_name,participant,session,date,expName,expVersion,psychopyVersion,frameRate,expStart,
0,0,0,[np.float64(0.10277777777777777)],[np.float64(0.31574074074074077)],[0],[0],[1],[6.160447100002784],['target'],0,0,0,0,0.031998800026485696,,5,0.022114100022008643,0.031998800026485696,0.031998800026485696,0.022140100016258657,6.182754200010095,[np.float64(0.10277777777777777)],[np.float64(0.31574074074074077)],[0],[0],[1],[6.160447100002784],['target'],002,001,2025-09-30_19h47.00.454,Visual Search,,2025.1.1,60.02469416553057,2025-09-30 19h47.12.858348 +0530,
1,0,1,"[np.float64(0.10277777777777777), np.float64(0.41574074074074074)]","[np.float64(0.31574074074074077), np.float64(-0.06296296296296296)]","[0, 0]","[0, 0]","[1, 1]","[0.0005404000112321228, 2.314085599995451]","[None, 'target']",1,0,1,0,6.226241800002754,,5,6.217515199998161,6.226241800002754,6.226241800002754,0.034304200002225116,8.532024600019213,"[np.float64(0.10277777777777777), np.float64(0.41574074074074074)]","[np.float64(0.31574074074074077), np.float64(-0.06296296296296296)]","[0, 0]","[0, 0]","[1, 1]","[0.0005404000112321228, 2.314085599995451]","[None, 'target']",002,001,2025-09-30_19h47.00.454,Visual Search,,2025.1.1,60.02469416553057,2025-09-30 19h47.12.858348 +0530,
2,0,2,[np.float64(-0.026851851851851852)],[np.float64(-0.3472222222222222)],[0],[0],[1],[5.327781900006812],['target'],2,0,2,0,8.558796199999051,,5,8.550142500025686,8.558796199999051,8.558796199999051,0.017035900003975257,13.878070200007642,[np.float64(-0.026851851851851852)],[np.float64(-0.3472222222222222)],[0],[0],[1],[5.327781900006812],['target'],002,001,2025-09-30_19h47.00.454,Visual Search,,2025.1.1,60.02469416553057,2025-09-30 19h47.12.858348 +0530,
3,0,3,[np.float64(-0.262037037037037)],[np.float64(0.42685185185185187)],[0],[0],[1],[2.6949583000096027],['target'],3,0,3,0,13.90828590001911,,5,13.898867800016887,13.90828590001911,13.90828590001911,0.02048460001242347,16.593948100024136,[np.float64(-0.262037037037037)],[np.float64(0.42685185185185187)],[0],[0],[1],[2.6949583000096027],['target'],002,001,2025-09-30_19h47.00.454,Visual Search,,2025.1.1,60.02469416553057,2025-09-30 19h47.12.858348 +0530,
4,0,4,[np.float64(-0.38333333333333336)],[np.float64(-0.06666666666666667)],[0],[0],[1],[1.9148636999889277],['target'],4,0,4,0,16.636657700000796,,5,16.628377700020792,16.636657700000796,16.636657700000796,0.034129299980122596,18.54332080000313,[np.float64(-0.38333333333333336)],[np.float64(-0.06666666666666667)],[0],[0],[1],[1.9148636999889277],['target'],002,001,2025-09-30_19h47.00.454,Visual Search,,2025.1.1,60.02469416553057,2025-09-30 19h47.12.858348 +0530,
5,0,5,[np.float64(0.47129629629629627)],[np.float64(-0.18055555555555555)],[0],[0],[1],[2.1801241999783088],['target'],5,0,5,0,18.57257980000577,,5,18.56357769999886,18.57257980000577,18.57257980000577,0.020031899999594316,20.74383350001881,[np.float64(0.47129629629629627)],[np.float64(-0.18055555555555555)],[0],[0],[1],[2.1801241999783088],['target'],002,001,2025-09-30_19h47.00.454,Visual Search,,2025.1.1,60.02469416553057,2025-09-30 19h47.12.858348 +0530,
6,0,6,[np.float64(-0.2518518518518518)],[np.float64(-0.387037037037037)],[0],[0],[1],[2.445386800012784],['target'],6,0,6,0,20.86351900000591,,10,20.84805050000432,20.86351900000591,20.86351900000591,0.10385149999638088,23.29352210002253,[np.float64(-0.2518518518518518)],[np.float64(-0.387037037037037)],[0],[0],[1],[2.445386800012784],['target'],002,001,2025-09-30_19h47.00.454,Visual Search,,2025.1.1,60.02469416553057,2025-09-30 19h47.12.858348 +0530,
7,0,7,[np.float64(-0.29444444444444445)],[np.float64(0.10462962962962963)],[0],[0],[1],[2.48941979999654],['target'],7,0,7,0,23.338036200002534,,10,23.32440189999761,23.338036200002534,23.338036200002534,0.030649599997559562,25.81410760001745,[np.float64(-0.29444444444444445)],[np.float64(0.10462962962962963)],[0],[0],[1],[2.48941979999654],['target'],002,001,2025-09-30_19h47.00.454,Visual Search,,2025.1.1,60.02469416553057,2025-09-30 19h47.12.858348 +0530,
8,0,8,[np.float64(0.29444444444444445)],[np.float64(0.25462962962962965)],[0],[0],[1],[2.847804199991515],['target'],8,0,8,0,25.875115400005598,,10,25.861191500007408,25.875115400005598,25.875115400005598,0.04631460001110099,28.709065300005022,[np.float64(0.29444444444444445)],[np.float64(0.25462962962962965)],[0],[0],[1],[2.847804199991515],['target'],002,001,2025-09-30_19h47.00.454,Visual Search,,2025.1.1,60.02469416553057,2025-09-30 19h47.12.858348 +0530,
9,0,9,[np.float64(-0.4287037037037037)],[np.float64(-0.1935185185185185)],[0],[0],[1],[2.3893349999852944],['target'],9,0,9,0,28.76746290002484,,10,28.753235600015614,28.76746290002484,28.76746290002484,0.043977600027574226,31.142657000018517,[np.float64(-0.4287037037037037)],[np.float64(-0.1935185185185185)],[0],[0],[1],[2.3893349999852944],['target'],002,001,2025-09-30_19h47.00.454,Visual Search,,2025.1.1,60.02469416553057,2025-09-30 19h47.12.858348 +0530,
10,0,10,[np.float64(0.15185185185185185)],[np.float64(0.462037037037037)],[0],[0],[1],[2.7557900000247173],['target'],10,0,10,0,31.201027800008887,,10,31.186688900023,31.201027800008887,31.201027800008887,0.04382600000826642,33.94259360001888,[np.float64(0.15185185185185185)],[np.float64(0.462037037037037)],[0],[0],[1],[2.7557900000247173],['target'],002,001,2025-09-30_19h47.00.454,Visual Search,,2025.1.1,60.02469416553057,2025-09-30 19h47.12.858348 +0530,
11,0,11,[np.float64(0.4)],[np.float64(0.2490740740740741)],[0],[0],[1],[2.6739794999884907],['target'],11,0,11,0,33.97747870002058,,5,33.96782460002578,33.97747870002058,33.97747870002058,0.024904599995352328,36.6418969000224,[np.float64(0.4)],[np.float64(0.2490740740740741)],[0],[0],[1],[2.6739794999884907],['target'],002,001,2025-09-30_19h47.00.454,Visual Search,,2025.1.1,60.02469416553057,2025-09-30 19h47.12.858348 +0530,
12,0,12,[np.float64(0.45925925925925926)],[np.float64(0.5)],[0],[0],[1],[3.551914100011345],['target'],12,0,12,0,36.688299300003564,,10,36.67251660002512,36.688299300003564,36.688299300003564,0.030456200009211898,40.22446029999992,[np.float64(0.45925925925925926)],[np.float64(0.5)],[0],[0],[1],[3.551914100011345],['target'],002,001,2025-09-30_19h47.00.454,Visual Search,,2025.1.1,60.02469416553057,2025-09-30 19h47.12.858348 +0530,
13,0,13,[np.float64(0.3398148148148148)],[np.float64(-0.1824074074074074)],[0],[0],[1],[2.5707225000078324],['target'],13,0,13,0,40.26806190001662,,10,40.25416190002579,40.26806190001662,40.26806190001662,0.02955370000563562,42.825016500020865,[np.float64(0.3398148148148148)],[np.float64(-0.1824074074074074)],[0],[0],[1],[2.5707225000078324],['target'],002,001,2025-09-30_19h47.00.454,Visual Search,,2025.1.1,60.02469416553057,2025-09-30 19h47.12.858348 +0530,
14,0,14,[np.float64(-0.475)],[np.float64(0.4185185185185185)],[0],[0],[1],[2.558040300005814],['target'],14,0,14,0,42.86023750001914,,5,42.85001600001124,42.86023750001914,42.86023750001914,0.024622099997941405,45.40819450002164,[np.float64(-0.475)],[np.float64(0.4185185185185185)],[0],[0],[1],[2.558040300005814],['target'],002,001,2025-09-30_19h47.00.454,Visual Search,,2025.1.1,60.02469416553057,2025-09-30 19h47.12.858348 +0530,
15,0,15,"[np.float64(-0.475), np.float64(0.49444444444444446)]","[np.float64(0.4185185185185185), np.float64(0.5)]","[0, 0]","[0, 0]","[1, 1]","[0.0005024000129196793, 2.545617800002219]","[None, 'target']",15,0,15,0,45.45977180000045,,10,45.444449300004635,45.45977180000045,45.45977180000045,0.035990499978652224,47.99013930000365,"[np.float64(-0.475), np.float64(0.49444444444444446)]","[np.float64(0.4185185185185185), np.float64(0.5)]","[0, 0]","[0, 0]","[1, 1]","[0.0005024000129196793, 2.545617800002219]","[None, 'target']",002,001,2025-09-30_19h47.00.454,Visual Search,,2025.1.1,60.02469416553057,2025-09-30 19h47.12.858348 +0530,
16,0,16,[np.float64(-0.3824074074074074)],[np.float64(0.24537037037037038)],[0],[0],[1],[2.174292500014417],['target'],16,0,16,0,48.03294660002575,,10,48.0187173000013,48.03294660002575,48.03294660002575,0.028330100001767278,50.19336320000002,[np.float64(-0.3824074074074074)],[np.float64(0.24537037037037038)],[0],[0],[1],[2.174292500014417],['target'],002,001,2025-09-30_19h47.00.454,Visual Search,,2025.1.1,60.02469416553057,2025-09-30 19h47.12.858348 +0530,
17,0,17,[np.float64(-0.475)],[np.float64(0.2601851851851852)],[0],[0],[1],[2.068564499990316],['target'],17,0,17,0,50.25569170000381,,10,50.24105650000274,50.25569170000381,50.25569170000381,0.046807399980025366,52.309711000008974,[np.float64(-0.475)],[np.float64(0.2601851851851852)],[0],[0],[1],[2.068564499990316],['target'],002,001,2025-09-30_19h47.00.454,Visual Search,,2025.1.1,60.02469416553057,2025-09-30 19h47.12.858348 +0530,
18,0,18,"[np.float64(-0.475), np.float64(-0.1175925925925926)]","[np.float64(0.2601851851851852), np.float64(0.24351851851851852)]","[0, 0]","[0, 0]","[1, 1]","[0.0007288999913726002, 1.6307890999887604]","[None, 'target']",18,0,18,0,52.3390003000095,,5,52.328872300015064,52.3390003000095,52.3390003000095,0.01894219999667257,53.95989300002111,"[np.float64(-0.475), np.float64(-0.1175925925925926)]","[np.float64(0.2601851851851852), np.float64(0.24351851851851852)]","[0, 0]","[0, 0]","[1, 1]","[0.0007288999913726002, 1.6307890999887604]","[None, 'target']",002,001,2025-09-30_19h47.00.454,Visual Search,,2025.1.1,60.02469416553057,2025-09-30 19h47.12.858348 +0530,
19,0,19,[np.float64(-0.12129629629629629)],[np.float64(-0.019444444444444445)],[0],[0],[1],[2.05942619999405],['target'],19,0,19,0,54.00679070001934,,5,53.99780209999881,54.00679070001934,54.00679070001934,0.03717080000205897,56.05738840001868,[np.float64(-0.12129629629629629)],[np.float64(-0.019444444444444445)],[0],[0],[1],[2.05942619999405],['target'],002,001,2025-09-30_19h47.00.454,Visual Search,,2025.1.1,60.02469416553057,2025-09-30 19h47.12.858348 +0530,
20,0,20,[np.float64(0.09351851851851851)],[np.float64(-0.19537037037037036)],[0],[0],[1],[3.3464628999936394],['target'],20,0,20,0,56.10872889999882,,10,56.0940284000244,56.10872889999882,56.10872889999882,0.03631369999493472,59.44059370001196,[np.float64(0.09351851851851851)],[np.float64(-0.19537037037037036)],[0],[0],[1],[3.3464628999936394],['target'],002,001,2025-09-30_19h47.00.454,Visual Search,,2025.1.1,60.02469416553057,2025-09-30 19h47.12.858348 +0530,
21,0,21,"[np.float64(0.09351851851851851), np.float64(-0.23796296296296296)]","[np.float64(-0.19537037037037036), np.float64(-0.08888888888888889)]","[0, 0]","[0, 0]","[0, 1]","[0.0019931999850086868, 1.990300199977355]","[None, 'target']",21,0,21,0,59.477260300016496,,5,59.466419100004714,59.477260300016496,59.477260300016496,0.02554259999305941,61.45689100000891,"[np.float64(0.09351851851851851), np.float64(-0.23796296296296296)]","[np.float64(-0.19537037037037036), np.float64(-0.08888888888888889)]","[0, 0]","[0, 0]","[0, 1]","[0.0019931999850086868, 1.990300199977355]","[None, 'target']",002,001,2025-09-30_19h47.00.454,Visual Search,,2025.1.1,60.02469416553057,2025-09-30 19h47.12.858348 +0530,
22,0,22,[np.float64(-0.22870370370370371)],[np.float64(-0.21574074074074073)],[0],[0],[1],[1.8670259999926202],['target'],22,0,22,0,61.50911720001022,,10,61.49456000002101,61.50911720001022,61.50911720001022,0.03732050000689924,63.36200270001427,[np.float64(-0.22870370370370371)],[np.float64(-0.21574074074074073)],[0],[0],[1],[1.8670259999926202],['target'],002,001,2025-09-30_19h47.00.454,Visual Search,,2025.1.1,60.02469416553057,2025-09-30 19h47.12.858348 +0530,
23,0,23,[np.float64(-0.21851851851851853)],[np.float64(0.34444444444444444)],[0],[0],[1],[4.103769799985457],['target'],23,0,23,0,63.39732320001349,,5,63.388019100006204,63.39732320001349,63.39732320001349,0.02477829999406822,67.49205390000134,[np.float64(-0.21851851851851853)],[np.float64(0.34444444444444444)],[0],[0],[1],[4.103769799985457],['target'],002,001,2025-09-30_19h47.00.454,Visual Search,,2025.1.1,60.02469416553057,2025-09-30 19h47.12.858348 +0530,
24,0,24,[np.float64(-0.0824074074074074)],[np.float64(0.47314814814814815)],[0],[0],[1],[2.2947921000013594],['target'],24,0,24,0,67.55690750002395,,10,67.54332019999856,67.55690750002395,67.55690750002395,0.050652300007641315,69.83821100002388,[np.float64(-0.0824074074074074)],[np.float64(0.47314814814814815)],[0],[0],[1],[2.2947921000013594],['target'],002,001,2025-09-30_19h47.00.454,Visual Search,,2025.1.1,60.02469416553057,2025-09-30 19h47.12.858348 +0530,
25,0,25,[np.float64(0.19074074074074074)],[np.float64(-0.45740740740740743)],[0],[0],[1],[3.5706826000241563],['target'],25,0,25,0,69.88256540001021,,10,69.86819750000723,69.88256540001021,69.88256540001021,0.029750099987722933,73.43899410002632,[np.float64(0.19074074074074074)],[np.float64(-0.45740740740740743)],[0],[0],[1],[3.5706826000241563],['target'],002,001,2025-09-30_19h47.00.454,Visual Search,,2025.1.1,60.02469416553057,2025-09-30 19h47.12.858348 +0530,
26,0,26,"[np.float64(0.19074074074074074), np.float64(-0.41759259259259257)]","[np.float64(-0.45740740740740743), np.float64(0.1675925925925926)]","[0, 0]","[0, 0]","[1, 1]","[0.0006852000078652054, 3.751197100005811]","[None, 'target']",26,0,26,0,73.46525600002497,,5,73.45596290001413,73.46525600002497,73.46525600002497,0.01674970000749454,77.2075831000111,"[np.float64(0.19074074074074074), np.float64(-0.41759259259259257)]","[np.float64(-0.45740740740740743), np.float64(0.1675925925925926)]","[0, 0]","[0, 0]","[1, 1]","[0.0006852000078652054, 3.751197100005811]","[None, 'target']",002,001,2025-09-30_19h47.00.454,Visual Search,,2025.1.1,60.02469416553057,2025-09-30 19h47.12.858348 +0530,
27,0,27,[np.float64(0.28425925925925927)],[np.float64(-0.46574074074074073)],[0],[0],[1],[2.6502106999978423],['target'],27,0,27,0,77.26761840001564,,10,77.25401630002307,77.26761840001564,77.26761840001564,0.04523439999320544,79.90435409999918,[np.float64(0.28425925925925927)],[np.float64(-0.46574074074074073)],[0],[0],[1],[2.6502106999978423],['target'],002,001,2025-09-30_19h47.00.454,Visual Search,,2025.1.1,60.02469416553057,2025-09-30 19h47.12.858348 +0530,
28,0,28,[np.float64(0.3277777777777778)],[np.float64(-0.225)],[0],[0],[1],[2.0623716000118293],['target'],28,0,28,0,79.95685139999841,,10,79.94294960002298,79.95685139999841,79.95685139999841,0.038301599997794256,82.00554199999897,[np.float64(0.3277777777777778)],[np.float64(-0.225)],[0],[0],[1],[2.0623716000118293],['target'],002,001,2025-09-30_19h47.00.454,Visual Search,,2025.1.1,60.02469416553057,2025-09-30 19h47.12.858348 +0530,
29,0,29,[np.float64(-0.28425925925925927)],[np.float64(-0.17592592592592593)],[0],[0],[1],[3.128334699984407],['target'],29,0,29,0,82.05897160002496,,10,82.04500410001492,82.05897160002496,82.05897160002496,0.038932800001930445,85.17343439999968,[np.float64(-0.28425925925925927)],[np.float64(-0.17592592592592593)],[0],[0],[1],[3.128334699984407],['target'],002,001,2025-09-30_19h47.00.454,Visual Search,,2025.1.1,60.02469416553057,2025-09-30 19h47.12.858348 +0530,
30,0,30,"[np.float64(-0.28425925925925927), np.float64(-0.31296296296296294)]","[np.float64(-0.17592592592592593), np.float64(-0.4388888888888889)]","[0, 0]","[0, 0]","[1, 1]","[0.0018841999990399927, 2.803581500018481]","[None, 'target']",30,0,30,0,85.21216429999913,,5,85.19936160001089,85.21216429999913,85.21216429999913,0.025676599994767457,88.00305600001593,"[np.float64(-0.28425925925925927), np.float64(-0.31296296296296294)]","[np.float64(-0.17592592592592593), np.float64(-0.4388888888888889)]","[0, 0]","[0, 0]","[1, 1]","[0.0018841999990399927, 2.803581500018481]","[None, 'target']",002,001,2025-09-30_19h47.00.454,Visual Search,,2025.1.1,60.02469416553057,2025-09-30 19h47.12.858348 +0530,
31,0,31,[np.float64(-0.1824074074074074)],[np.float64(0.4777777777777778)],[0],[0],[1],[5.778027499996824],['target'],31,0,31,0,88.05813879999914,,10,88.04378870001528,88.05813879999914,88.05813879999914,0.04028379998635501,93.82206630002474,[np.float64(-0.1824074074074074)],[np.float64(0.4777777777777778)],[0],[0],[1],[5.778027499996824],['target'],002,001,2025-09-30_19h47.00.454,Visual Search,,2025.1.1,60.02469416553057,2025-09-30 19h47.12.858348 +0530,
32,0,32,[np.float64(-0.30277777777777776)],[np.float64(0.19537037037037036)],[0],[0],[1],[2.6551821999892127],['target'],32,0,32,0,93.8588591000007,,5,93.8490587999986,93.8588591000007,93.8588591000007,0.02615630000946112,96.5043818000122,[np.float64(-0.30277777777777776)],[np.float64(0.19537037037037036)],[0],[0],[1],[2.6551821999892127],['target'],002,001,2025-09-30_19h47.00.454,Visual Search,,2025.1.1,60.02469416553057,2025-09-30 19h47.12.858348 +0530,
33,0,33,"[np.float64(-0.30277777777777776), np.float64(-0.4861111111111111)]","[np.float64(0.19537037037037036), np.float64(0.30092592592592593)]","[0, 0]","[0, 0]","[1, 1]","[0.0007040999771561474, 2.5251679999928456]","[None, 'target']",33,0,33,0,96.55615070002386,,5,96.54539920002571,96.55615070002386,96.55615070002386,0.04068060001009144,99.0709526000137,"[np.float64(-0.30277777777777776), np.float64(-0.4861111111111111)]","[np.float64(0.19537037037037036), np.float64(0.30092592592592593)]","[0, 0]","[0, 0]","[1, 1]","[0.0007040999771561474, 2.5251679999928456]","[None, 'target']",002,001,2025-09-30_19h47.00.454,Visual Search,,2025.1.1,60.02469416553057,2025-09-30 19h47.12.858348 +0530,
34,0,34,[np.float64(0.08703703703703704)],[np.float64(0.4203703703703704)],[0],[0],[1],[3.9597604000009596],['target'],34,0,34,0,99.14018159999978,,10,99.12600820002262,99.14018159999978,99.14018159999978,0.053858600003877655,103.08586880000075,[np.float64(0.08703703703703704)],[np.float64(0.4203703703703704)],[0],[0],[1],[3.9597604000009596],['target'],002,001,2025-09-30_19h47.00.454,Visual Search,,2025.1.1,60.02469416553057,2025-09-30 19h47.12.858348 +0530,
35,0,35,"[np.float64(0.08703703703703704), np.float64(-0.22685185185185186)]","[np.float64(0.4203703703703704), np.float64(0.08425925925925926)]","[0, 0]","[0, 0]","[1, 1]","[0.0008160000143107027, 2.4703815999964718]","[None, 'target']",35,0,35,0,103.12466420000419,,5,103.11540110001806,103.12466420000419,103.12466420000419,0.02925709998817183,105.58592340000905,"[np.float64(0.08703703703703704), np.float64(-0.22685185185185186)]","[np.float64(0.4203703703703704), np.float64(0.08425925925925926)]","[0, 0]","[0, 0]","[1, 1]","[0.0008160000143107027, 2.4703815999964718]","[None, 'target']",002,001,2025-09-30_19h47.00.454,Visual Search,,2025.1.1,60.02469416553057,2025-09-30 19h47.12.858348 +0530,
36,0,36,"[np.float64(-0.22685185185185186), np.float64(0.21574074074074073)]","[np.float64(0.08425925925925926), np.float64(-0.14444444444444443)]","[0, 0]","[0, 0]","[1, 1]","[0.0005114999949000776, 2.6120060999819543]","[None, 'target']",36,0,36,0,105.63744930000394,,10,105.62339930000599,105.63744930000394,105.63744930000394,0.037141700013307855,108.23566210002173,"[np.float64(-0.22685185185185186), np.float64(0.21574074074074073)]","[np.float64(0.08425925925925926), np.float64(-0.14444444444444443)]","[0, 0]","[0, 0]","[1, 1]","[0.0005114999949000776, 2.6120060999819543]","[None, 'target']",002,001,2025-09-30_19h47.00.454,Visual Search,,2025.1.1,60.02469416553057,2025-09-30 19h47.12.858348 +0530,
37,0,37,[np.float64(0.1361111111111111)],[np.float64(0.26944444444444443)],[0],[0],[1],[2.595228899997892],['target'],37,0,37,0,108.2673670000222,,5,108.25813500001095,108.2673670000222,108.2673670000222,0.021608300012303516,110.853551600012,[np.float64(0.1361111111111111)],[np.float64(0.26944444444444443)],[0],[0],[1],[2.595228899997892],['target'],002,001,2025-09-30_19h47.00.454,Visual Search,,2025.1.1,60.02469416553057,2025-09-30 19h47.12.858348 +0530,
38,0,38,[np.float64(-0.11018518518518519)],[np.float64(0.05740740740740741)],[0],[0],[1],[2.0384485000104178],['target'],38,0,38,0,110.91213910002261,,10,110.89851830000407,110.91213910002261,110.91213910002261,0.044383699976606295,112.93720470002154,[np.float64(-0.11018518518518519)],[np.float64(0.05740740740740741)],[0],[0],[1],[2.0384485000104178],['target'],002,001,2025-09-30_19h47.00.454,Visual Search,,2025.1.1,60.02469416553057,2025-09-30 19h47.12.858348 +0530,
39,0,39,"[np.float64(-0.11018518518518519), np.float64(0.4444444444444444)]","[np.float64(0.05740740740740741), np.float64(-0.27870370370370373)]","[0, 0]","[0, 0]","[1, 1]","[0.0012953999976161867, 4.642763500014553]","[None, 'target']",39,0,39,0,112.98556220001774,,5,112.97441029999754,112.98556220001774,112.98556220001774,0.036482399998931214,117.61730100002023,"[np.float64(-0.11018518518518519), np.float64(0.4444444444444444)]","[np.float64(0.05740740740740741), np.float64(-0.27870370370370373)]","[0, 0]","[0, 0]","[1, 1]","[0.0012953999976161867, 4.642763500014553]","[None, 'target']",002,001,2025-09-30_19h47.00.454,Visual Search,,2025.1.1,60.02469416553057,2025-09-30 19h47.12.858348 +0530,
40,0,40,"[np.float64(0.4444444444444444), np.float64(0.1787037037037037)]","[np.float64(-0.27870370370370373), np.float64(0.2490740740740741)]","[0, 0]","[0, 0]","[1, 1]","[0.0005760999920312315, 3.6928086999978404]","[None, 'target']",40,0,40,0,117.6499878000177,,5,117.64147670002421,117.6499878000177,117.6499878000177,0.023838399996748194,121.33449550002115,"[np.float64(0.4444444444444444), np.float64(0.1787037037037037)]","[np.float64(-0.27870370370370373), np.float64(0.2490740740740741)]","[0, 0]","[0, 0]","[1, 1]","[0.0005760999920312315, 3.6928086999978404]","[None, 'target']",002,001,2025-09-30_19h47.00.454,Visual Search,,2025.1.1,60.02469416553057,2025-09-30 19h47.12.858348 +0530,
41,0,41,"[np.float64(0.1787037037037037), np.float64(0.4444444444444444)]","[np.float64(0.2490740740740741), np.float64(0.20555555555555555)]","[0, 0]","[0, 0]","[1, 1]","[0.0010322000016458333, 2.013112299988279]","[None, 'target']",41,0,41,0,121.38524290002533,,5,121.37121670000488,121.38524290002533,121.38524290002533,0.03623450000304729,123.3845928000228,"[np.float64(0.1787037037037037), np.float64(0.4444444444444444)]","[np.float64(0.2490740740740741), np.float64(0.20555555555555555)]","[0, 0]","[0, 0]","[1, 1]","[0.0010322000016458333, 2.013112299988279]","[None, 'target']",002,001,2025-09-30_19h47.00.454,Visual Search,,2025.1.1,60.02469416553057,2025-09-30 19h47.12.858348 +0530,
42,0,42,"[np.float64(0.4444444444444444), np.float64(0.15925925925925927)]","[np.float64(0.20555555555555555), np.float64(-0.1787037037037037)]","[0, 0]","[0, 0]","[1, 1]","[0.0008149999775923789, 2.702584599988768]","[None, 'target']",42,0,42,0,123.44179890002124,,5,123.4299069000117,123.44179890002124,123.44179890002124,0.04462460000650026,126.13268190002418,"[np.float64(0.4444444444444444), np.float64(0.15925925925925927)]","[np.float64(0.20555555555555555), np.float64(-0.1787037037037037)]","[0, 0]","[0, 0]","[1, 1]","[0.0008149999775923789, 2.702584599988768]","[None, 'target']",002,001,2025-09-30_19h47.00.454,Visual Search,,2025.1.1,60.02469416553057,2025-09-30 19h47.12.858348 +0530,
43,0,43,"[np.float64(0.15925925925925927), np.float64(-0.1574074074074074)]","[np.float64(-0.1787037037037037), np.float64(-0.1787037037037037)]","[0, 0]","[0, 0]","[1, 1]","[0.000522699992870912, 2.0570394000096712]","[None, 'target']",43,0,43,0,126.16899870001362,,5,126.15972560000955,126.16899870001362,126.16899870001362,0.026601899997331202,128.21717820002232,"[np.float64(0.15925925925925927), np.float64(-0.1574074074074074)]","[np.float64(-0.1787037037037037), np.float64(-0.1787037037037037)]","[0, 0]","[0, 0]","[1, 1]","[0.000522699992870912, 2.0570394000096712]","[None, 'target']",002,001,2025-09-30_19h47.00.454,Visual Search,,2025.1.1,60.02469416553057,2025-09-30 19h47.12.858348 +0530,
44,0,44,[np.float64(0.3314814814814815)],[np.float64(-0.2962962962962963)],[0],[0],[1],[2.2081437000015285],['target'],44,0,44,0,128.25311390002025,,5,128.2435747999989,128.25311390002025,128.25311390002025,0.025489099993137643,130.45204540001578,[np.float64(0.3314814814814815)],[np.float64(-0.2962962962962963)],[0],[0],[1],[2.2081437000015285],['target'],002,001,2025-09-30_19h47.00.454,Visual Search,,2025.1.1,60.02469416553057,2025-09-30 19h47.12.858348 +0530,
45,0,45,"[np.float64(0.3314814814814815), np.float64(0.35462962962962963)]","[np.float64(-0.2962962962962963), np.float64(0.030555555555555555)]","[0, 0]","[0, 0]","[1, 1]","[0.000814300001366064, 2.629225399985444]","[None, 'target']",45,0,45,0,130.49925260001328,,5,130.48737800001982,130.49925260001328,130.49925260001328,0.034601999999722466,133.11680750001688,"[np.float64(0.3314814814814815), np.float64(0.35462962962962963)]","[np.float64(-0.2962962962962963), np.float64(0.030555555555555555)]","[0, 0]","[0, 0]","[1, 1]","[0.000814300001366064, 2.629225399985444]","[None, 'target']",002,001,2025-09-30_19h47.00.454,Visual Search,,2025.1.1,60.02469416553057,2025-09-30 19h47.12.858348 +0530,
46,0,46,"[np.float64(0.35462962962962963), np.float64(0.19907407407407407)]","[np.float64(0.030555555555555555), np.float64(0.5)]","[0, 0]","[0, 0]","[1, 1]","[0.0008417000062763691, 2.360788699996192]","[None, 'target']",46,0,46,0,133.16813490001368,,5,133.15555950000999,133.16813490001368,133.16813490001368,0.038033499993616715,135.51679540000623,"[np.float64(0.35462962962962963), np.float64(0.19907407407407407)]","[np.float64(0.030555555555555555), np.float64(0.5)]","[0, 0]","[0, 0]","[1, 1]","[0.0008417000062763691, 2.360788699996192]","[None, 'target']",002,001,2025-09-30_19h47.00.454,Visual Search,,2025.1.1,60.02469416553057,2025-09-30 19h47.12.858348 +0530,
47,0,47,[np.float64(0.07037037037037037)],[np.float64(-0.4166666666666667)],[0],[0],[1],[5.546099900006084],['target'],47,0,47,0,135.5672510000004,,10,135.5526050000044,135.5672510000004,135.5672510000004,0.03462649998255074,141.0989512000233,[np.float64(0.07037037037037037)],[np.float64(-0.4166666666666667)],[0],[0],[1],[5.546099900006084],['target'],002,001,2025-09-30_19h47.00.454,Visual Search,,2025.1.1,60.02469416553057,2025-09-30 19h47.12.858348 +0530,
48,0,48,[np.float64(0.11666666666666667)],[np.float64(-0.43333333333333335)],[0],[0],[1],[1.2970636000100058],['target'],48,0,48,0,141.1662728000083,,10,141.15166810000665,141.1662728000083,141.1662728000083,0.05218989998684265,142.44881349999923,[np.float64(0.11666666666666667)],[np.float64(-0.43333333333333335)],[0],[0],[1],[1.2970636000100058],['target'],002,001,2025-09-30_19h47.00.454,Visual Search,,2025.1.1,60.02469416553057,2025-09-30 19h47.12.858348 +0530,
49,0,49,[np.float64(0.11666666666666667)],[np.float64(-0.43333333333333335)],[0],[0],[1],[0.0009972999978344887],['target'],49,0,49,0,142.51351129999966,,5,142.47102000002633,142.51351129999966,142.51351129999966,0.021974100003717467,142.47211020000395,[np.float64(0.11666666666666667)],[np.float64(-0.43333333333333335)],[0],[0],[1],[0.0009972999978344887],['target'],002,001,2025-09-30_19h47.00.454,Visual Search,,2025.1.1,60.02469416553057,2025-09-30 19h47.12.858348 +0530,
50,0,50,"[np.float64(0.11666666666666667), np.float64(-0.11481481481481481)]","[np.float64(-0.43333333333333335), np.float64(0.31296296296296294)]","[0, 0]","[0, 0]","[1, 1]","[0.0005677000153809786, 3.3322159000090323]","[None, 'target']",50,0,50,0,142.51351129999966,,10,142.49838570001884,142.51351129999966,142.51351129999966,0.026066599995829165,145.8306983000075,"[np.float64(0.11666666666666667), np.float64(-0.11481481481481481)]","[np.float64(-0.43333333333333335), np.float64(0.31296296296296294)]","[0, 0]","[0, 0]","[1, 1]","[0.0005677000153809786, 3.3322159000090323]","[None, 'target']",002,001,2025-09-30_19h47.00.454,Visual Search,,2025.1.1,60.02469416553057,2025-09-30 19h47.12.858348 +0530,
51,0,51,"[np.float64(-0.11481481481481481), np.float64(-0.33425925925925926)]","[np.float64(0.31296296296296294), np.float64(-0.2638888888888889)]","[0, 0]","[0, 0]","[1, 1]","[0.0007106999983079731, 2.3737180000171065]","[None, 'target']",51,0,51,0,145.87330940001993,,10,145.8588961000205,145.87330940001993,145.87330940001993,0.027925600006710738,148.23285770000075,"[np.float64(-0.11481481481481481), np.float64(-0.33425925925925926)]","[np.float64(0.31296296296296294), np.float64(-0.2638888888888889)]","[0, 0]","[0, 0]","[1, 1]","[0.0007106999983079731, 2.3737180000171065]","[None, 'target']",002,001,2025-09-30_19h47.00.454,Visual Search,,2025.1.1,60.02469416553057,2025-09-30 19h47.12.858348 +0530,
52,0,52,"[np.float64(-0.33425925925925926), np.float64(-0.3074074074074074)]","[np.float64(-0.2638888888888889), np.float64(0.15462962962962962)]","[0, 0]","[0, 0]","[1, 1]","[0.0007473000150639564, 2.7337389000167605]","[None, 'target']",52,0,52,0,148.27555280001252,,5,148.26607680000598,148.27555280001252,148.27555280001252,0.0323758999875281,151.00022400001762,"[np.float64(-0.33425925925925926), np.float64(-0.3074074074074074)]","[np.float64(-0.2638888888888889), np.float64(0.15462962962962962)]","[0, 0]","[0, 0]","[1, 1]","[0.0007473000150639564, 2.7337389000167605]","[None, 'target']",002,001,2025-09-30_19h47.00.454,Visual Search,,2025.1.1,60.02469416553057,2025-09-30 19h47.12.858348 +0530,
53,0,53,[np.float64(0.09537037037037037)],[np.float64(0.08611111111111111)],[0],[0],[1],[3.688403800013475],['target'],53,0,53,0,151.07347070000833,,10,151.05934050001088,151.07347070000833,151.07347070000833,0.05797120000352152,154.74785680000787,[np.float64(0.09537037037037037)],[np.float64(0.08611111111111111)],[0],[0],[1],[3.688403800013475],['target'],002,001,2025-09-30_19h47.00.454,Visual Search,,2025.1.1,60.02469416553057,2025-09-30 19h47.12.858348 +0530,
54,0,54,"[np.float64(0.09537037037037037), np.float64(0.27037037037037037)]","[np.float64(0.08611111111111111), np.float64(-0.16203703703703703)]","[0, 0]","[0, 0]","[1, 1]","[0.0008805000106804073, 2.2054750000243075]","[None, 'target']",54,0,54,0,154.80867480000597,,10,154.7924567000009,154.80867480000597,154.80867480000597,0.04434449999826029,156.99817299999995,"[np.float64(0.09537037037037037), np.float64(0.27037037037037037)]","[np.float64(0.08611111111111111), np.float64(-0.16203703703703703)]","[0, 0]","[0, 0]","[1, 1]","[0.0008805000106804073, 2.2054750000243075]","[None, 'target']",002,001,2025-09-30_19h47.00.454,Visual Search,,2025.1.1,60.02469416553057,2025-09-30 19h47.12.858348 +0530,
55,0,55,"[np.float64(0.27037037037037037), np.float64(-0.3712962962962963)]","[np.float64(-0.16203703703703703), np.float64(0.33611111111111114)]","[0, 0]","[0, 0]","[1, 1]","[0.0008092000207398087, 3.774145600007614]","[None, 'target']",55,0,55,0,157.07096310000634,,10,157.0562999000249,157.07096310000634,157.07096310000634,0.05747589998645708,160.83056550001493,"[np.float64(0.27037037037037037), np.float64(-0.3712962962962963)]","[np.float64(-0.16203703703703703), np.float64(0.33611111111111114)]","[0, 0]","[0, 0]","[1, 1]","[0.0008092000207398087, 3.774145600007614]","[None, 'target']",002,001,2025-09-30_19h47.00.454,Visual Search,,2025.1.1,60.02469416553057,2025-09-30 19h47.12.858348 +0530,
56,0,56,"[np.float64(-0.3712962962962963), np.float64(0.44537037037037036)]","[np.float64(0.33611111111111114), np.float64(0.40925925925925927)]","[0, 0]","[0, 0]","[1, 1]","[0.000745400000596419, 2.6794053000048734]","[None, 'target']",56,0,56,0,160.87720240000635,,5,160.8673854000226,160.87720240000635,160.87720240000635,0.03633050000644289,163.5470310000237,"[np.float64(-0.3712962962962963), np.float64(0.44537037037037036)]","[np.float64(0.33611111111111114), np.float64(0.40925925925925927)]","[0, 0]","[0, 0]","[1, 1]","[0.000745400000596419, 2.6794053000048734]","[None, 'target']",002,001,2025-09-30_19h47.00.454,Visual Search,,2025.1.1,60.02469416553057,2025-09-30 19h47.12.858348 +0530,
57,0,57,"[np.float64(0.44537037037037036), np.float64(-0.47314814814814815)]","[np.float64(0.40925925925925927), np.float64(-0.31666666666666665)]","[0, 0]","[0, 0]","[1, 1]","[0.0005194000259507447, 2.3374262000143062]","[None, 'target']",57,0,57,0,163.58355010001105,,5,163.5743797000032,163.58355010001105,163.58355010001105,0.026697699999203905,165.91205030001584,"[np.float64(0.44537037037037036), np.float64(-0.47314814814814815)]","[np.float64(0.40925925925925927), np.float64(-0.31666666666666665)]","[0, 0]","[0, 0]","[1, 1]","[0.0005194000259507447, 2.3374262000143062]","[None, 'target']",002,001,2025-09-30_19h47.00.454,Visual Search,,2025.1.1,60.02469416553057,2025-09-30 19h47.12.858348 +0530,
58,0,58,"[np.float64(-0.47314814814814815), np.float64(-0.002777777777777778)]","[np.float64(-0.31666666666666665), np.float64(0.2601851851851852)]","[0, 0]","[0, 0]","[1, 1]","[0.0005661999748554081, 2.1880880999960937]","[None, 'target']",58,0,58,0,165.97275280000758,,10,165.95665230002487,165.97275280000758,165.97275280000758,0.04382460002670996,168.14481019999948,"[np.float64(-0.47314814814814815), np.float64(-0.002777777777777778)]","[np.float64(-0.31666666666666665), np.float64(0.2601851851851852)]","[0, 0]","[0, 0]","[1, 1]","[0.0005661999748554081, 2.1880880999960937]","[None, 'target']",002,001,2025-09-30_19h47.00.454,Visual Search,,2025.1.1,60.02469416553057,2025-09-30 19h47.12.858348 +0530,
59,0,59,"[np.float64(-0.002777777777777778), np.float64(0.08148148148148149)]","[np.float64(0.2601851851851852), np.float64(0.30092592592592593)]","[0, 0]","[0, 0]","[1, 1]","[0.0007375999994110316, 2.2369520999782253]","[None, 'target']",59,0,59,0,168.19094980001682,,10,168.1755246000248,168.19094980001682,168.19094980001682,0.030464399984339252,170.41262880002614,"[np.float64(-0.002777777777777778), np.float64(0.08148148148148149)]","[np.float64(0.2601851851851852), np.float64(0.30092592592592593)]","[0, 0]","[0, 0]","[1, 1]","[0.0007375999994110316, 2.2369520999782253]","[None, 'target']",002,001,2025-09-30_19h47.00.454,Visual Search,,2025.1.1,60.02469416553057,2025-09-30 19h47.12.858348 +0530,
60,0,60,"[np.float64(0.08148148148148149), np.float64(-0.21851851851851853)]","[np.float64(0.30092592592592593), np.float64(0.2111111111111111)]","[0, 0]","[0, 0]","[1, 1]","[0.000673700007610023, 3.7900340000051074]","[None, 'target']",60,0,60,0,170.46868640001048,,10,170.45432530000107,170.46868640001048,170.46868640001048,0.04131120000965893,174.2444410000171,"[np.float64(0.08148148148148149), np.float64(-0.21851851851851853)]","[np.float64(0.30092592592592593), np.float64(0.2111111111111111)]","[0, 0]","[0, 0]","[1, 1]","[0.000673700007610023, 3.7900340000051074]","[None, 'target']",002,001,2025-09-30_19h47.00.454,Visual Search,,2025.1.1,60.02469416553057,2025-09-30 19h47.12.858348 +0530,
61,0,61,"[np.float64(-0.21851851851851853), np.float64(-0.25925925925925924)]","[np.float64(0.2111111111111111), np.float64(-0.012962962962962963)]","[0, 0]","[0, 0]","[1, 1]","[0.0009159000182989985, 2.6824118999938946]","[None, 'target']",61,0,61,0,174.27359540000907,,5,174.26300940001966,174.27359540000907,174.27359540000907,0.018347100005485117,176.945627100009,"[np.float64(-0.21851851851851853), np.float64(-0.25925925925925924)]","[np.float64(0.2111111111111111), np.float64(-0.012962962962962963)]","[0, 0]","[0, 0]","[1, 1]","[0.0009159000182989985, 2.6824118999938946]","[None, 'target']",002,001,2025-09-30_19h47.00.454,Visual Search,,2025.1.1,60.02469416553057,2025-09-30 19h47.12.858348 +0530,
62,0,62,"[np.float64(-0.25925925925925924), np.float64(-0.362962962962963)]","[np.float64(-0.012962962962962963), np.float64(-0.03518518518518519)]","[0, 0]","[0, 0]","[1, 1]","[0.0007876000017859042, 2.7575130999903195]","[None, 'target']",62,0,62,0,176.99892530002398,,5,176.98701650000294,176.99892530002398,176.99892530002398,0.04089200001908466,179.74473010000656,"[np.float64(-0.25925925925925924), np.float64(-0.362962962962963)]","[np.float64(-0.012962962962962963), np.float64(-0.03518518518518519)]","[0, 0]","[0, 0]","[1, 1]","[0.0007876000017859042, 2.7575130999903195]","[None, 'target']",002,001,2025-09-30_19h47.00.454,Visual Search,,2025.1.1,60.02469416553057,2025-09-30 19h47.12.858348 +0530,
63,0,63,"[np.float64(-0.362962962962963), np.float64(-0.3527777777777778)]","[np.float64(-0.03518518518518519), np.float64(0.28703703703703703)]","[0, 0]","[0, 0]","[1, 1]","[0.0010810999956447631, 2.5134853000054136]","[None, 'target']",63,0,63,0,179.79629040000145,,5,179.78170060002594,179.79629040000145,179.79629040000145,0.035516100004315376,182.2953876000247,"[np.float64(-0.362962962962963), np.float64(-0.3527777777777778)]","[np.float64(-0.03518518518518519), np.float64(0.28703703703703703)]","[0, 0]","[0, 0]","[1, 1]","[0.0010810999956447631, 2.5134853000054136]","[None, 'target']",002,001,2025-09-30_19h47.00.454,Visual Search,,2025.1.1,60.02469416553057,2025-09-30 19h47.12.858348 +0530,
64,0,64,"[np.float64(-0.3527777777777778), np.float64(-0.04722222222222222)]","[np.float64(0.28703703703703703), np.float64(-0.41388888888888886)]","[0, 0]","[0, 0]","[1, 1]","[0.0007866999949328601, 3.4164166999980807]","[None, 'target']",64,0,64,0,182.33868939999957,,5,182.3272694000043,182.33868939999957,182.33868939999957,0.03131239998037927,185.74383859999944,"[np.float64(-0.3527777777777778), np.float64(-0.04722222222222222)]","[np.float64(0.28703703703703703), np.float64(-0.41388888888888886)]","[0, 0]","[0, 0]","[1, 1]","[0.0007866999949328601, 3.4164166999980807]","[None, 'target']",002,001,2025-09-30_19h47.00.454,Visual Search,,2025.1.1,60.02469416553057,2025-09-30 19h47.12.858348 +0530,
65,0,65,"[np.float64(-0.04722222222222222), np.float64(0.17777777777777778)]","[np.float64(-0.41388888888888886), np.float64(0.21574074074074073)]","[0, 0]","[0, 0]","[1, 1]","[0.000971800007391721, 2.755350499995984]","[None, 'target']",65,0,65,0,185.78798110000207,,5,185.77526500000386,185.78798110000207,185.78798110000207,0.030934000009438023,188.5308412000013,"[np.float64(-0.04722222222222222), np.float64(0.17777777777777778)]","[np.float64(-0.41388888888888886), np.float64(0.21574074074074073)]","[0, 0]","[0, 0]","[1, 1]","[0.000971800007391721, 2.755350499995984]","[None, 'target']",002,001,2025-09-30_19h47.00.454,Visual Search,,2025.1.1,60.02469416553057,2025-09-30 19h47.12.858348 +0530,
66,0,66,"[np.float64(0.17777777777777778), np.float64(-0.43148148148148147)]","[np.float64(0.21574074074074073), np.float64(-0.3990740740740741)]","[0, 0]","[0, 0]","[1, 1]","[0.0006534999993164092, 4.206691400002455]","[None, 'target']",66,0,66,0,188.60145880002528,,10,188.5869423999975,188.60145880002528,188.60145880002528,0.055263299989746884,192.79377930000192,"[np.float64(0.17777777777777778), np.float64(-0.43148148148148147)]","[np.float64(0.21574074074074073), np.float64(-0.3990740740740741)]","[0, 0]","[0, 0]","[1, 1]","[0.0006534999993164092, 4.206691400002455]","[None, 'target']",002,001,2025-09-30_19h47.00.454,Visual Search,,2025.1.1,60.02469416553057,2025-09-30 19h47.12.858348 +0530,
67,0,67,"[np.float64(-0.43148148148148147), np.float64(0.1537037037037037)]","[np.float64(-0.3990740740740741), np.float64(0.36203703703703705)]","[0, 0]","[0, 0]","[1, 1]","[0.0007276000105775893, 3.338655400002608]","[None, 'target']",67,0,67,0,192.85150060002343,,10,192.83680410002125,192.85150060002343,192.85150060002343,0.042497699992964044,196.17552760001854,"[np.float64(-0.43148148148148147), np.float64(0.1537037037037037)]","[np.float64(-0.3990740740740741), np.float64(0.36203703703703705)]","[0, 0]","[0, 0]","[1, 1]","[0.0007276000105775893, 3.338655400002608]","[None, 'target']",002,001,2025-09-30_19h47.00.454,Visual Search,,2025.1.1,60.02469416553057,2025-09-30 19h47.12.858348 +0530,
68,0,68,"[np.float64(0.1537037037037037), np.float64(-0.30092592592592593)]","[np.float64(0.36203703703703705), np.float64(-0.38333333333333336)]","[0, 0]","[0, 0]","[1, 1]","[0.0007314999820664525, 3.018415999977151]","[None, 'target']",68,0,68,0,196.20017930000904,,5,196.19121640000958,196.20017930000904,196.20017930000904,0.015478999994229525,199.20980940002482,"[np.float64(0.1537037037037037), np.float64(-0.30092592592592593)]","[np.float64(0.36203703703703705), np.float64(-0.38333333333333336)]","[0, 0]","[0, 0]","[1, 1]","[0.0007314999820664525, 3.018415999977151]","[None, 'target']",002,001,2025-09-30_19h47.00.454,Visual Search,,2025.1.1,60.02469416553057,2025-09-30 19h47.12.858348 +0530,
69,0,69,[np.float64(-0.2111111111111111)],[np.float64(-0.14074074074074075)],[0],[0],[1],[2.175664499984123],['target'],69,0,69,0,199.28179960002308,,10,199.2669732000213,199.28179960002308,199.28179960002308,0.05611700000008568,201.44288240000606,[np.float64(-0.2111111111111111)],[np.float64(-0.14074074074074075)],[0],[0],[1],[2.175664499984123],['target'],002,001,2025-09-30_19h47.00.454,Visual Search,,2025.1.1,60.02469416553057,2025-09-30 19h47.12.858348 +0530,
70,0,70,"[np.float64(-0.2111111111111111), np.float64(0.37222222222222223)]","[np.float64(-0.14074074074074075), np.float64(-0.10555555555555556)]","[0, 0]","[0, 0]","[1, 1]","[0.0009479000000283122, 3.2256533000036143]","[None, 'target']",70,0,70,0,201.4791102000163,,5,201.46776379999937,201.4791102000163,201.4791102000163,0.024148399999830872,204.69363530000555,"[np.float64(-0.2111111111111111), np.float64(0.37222222222222223)]","[np.float64(-0.14074074074074075), np.float64(-0.10555555555555556)]","[0, 0]","[0, 0]","[1, 1]","[0.0009479000000283122, 3.2256533000036143]","[None, 'target']",002,001,2025-09-30_19h47.00.454,Visual Search,,2025.1.1,60.02469416553057,2025-09-30 19h47.12.858348 +0530,
71,0,71,[np.float64(-0.262037037037037)],[np.float64(-0.011111111111111112)],[0],[0],[1],[3.1509630999935325],['target'],71,0,71,0,204.75218660000246,,5,204.74276350002037,204.75218660000246,204.75218660000246,0.04856260001542978,207.89397440000903,[np.float64(-0.262037037037037)],[np.float64(-0.011111111111111112)],[0],[0],[1],[3.1509630999935325],['target'],002,001,2025-09-30_19h47.00.454,Visual Search,,2025.1.1,60.02469416553057,2025-09-30 19h47.12.858348 +0530,
72,0,72,[np.float64(-0.2111111111111111)],[np.float64(0.006481481481481481)],[0],[0],[1],[2.159176299988758],['target'],72,0,72,0,207.96507760000532,,10,207.94892850000178,207.96507760000532,207.96507760000532,0.05438839999260381,210.10816810000688,[np.float64(-0.2111111111111111)],[np.float64(0.006481481481481481)],[0],[0],[1],[2.159176299988758],['target'],002,001,2025-09-30_19h47.00.454,Visual Search,,2025.1.1,60.02469416553057,2025-09-30 19h47.12.858348 +0530,
73,0,73,"[np.float64(-0.2111111111111111), np.float64(0.12962962962962962)]","[np.float64(0.006481481481481481), np.float64(0.05648148148148148)]","[0, 0]","[0, 0]","[1, 1]","[0.000767299992730841, 2.628722299996298]","[None, 'target']",73,0,73,0,210.13768060001894,,5,210.12863550000475,210.13768060001894,210.13768060001894,0.020293000008678064,212.75749950000318,"[np.float64(-0.2111111111111111), np.float64(0.12962962962962962)]","[np.float64(0.006481481481481481), np.float64(0.05648148148148148)]","[0, 0]","[0, 0]","[1, 1]","[0.000767299992730841, 2.628722299996298]","[None, 'target']",002,001,2025-09-30_19h47.00.454,Visual Search,,2025.1.1,60.02469416553057,2025-09-30 19h47.12.858348 +0530,
74,0,74,"[np.float64(0.12962962962962962), np.float64(0.31851851851851853)]","[np.float64(0.05648148148148148), np.float64(-0.07222222222222222)]","[0, 0]","[0, 0]","[1, 1]","[0.0006121000042185187, 1.7971842999977525]","[None, 'target']",74,0,74,0,212.7857604000019,,5,212.77650250002625,212.7857604000019,212.7857604000019,0.018741999985650182,214.57377149999957,"[np.float64(0.12962962962962962), np.float64(0.31851851851851853)]","[np.float64(0.05648148148148148), np.float64(-0.07222222222222222)]","[0, 0]","[0, 0]","[1, 1]","[0.0006121000042185187, 1.7971842999977525]","[None, 'target']",002,001,2025-09-30_19h47.00.454,Visual Search,,2025.1.1,60.02469416553057,2025-09-30 19h47.12.858348 +0530,
75,0,75,"[np.float64(0.31851851851851853), np.float64(-0.13055555555555556)]","[np.float64(-0.07222222222222222), np.float64(0.28888888888888886)]","[0, 0]","[0, 0]","[1, 1]","[0.0005622000026050955, 2.832405099994503]","[None, 'target']",75,0,75,0,214.6215835000039,,10,214.6075070000079,214.6215835000039,214.6215835000039,0.033517800009576604,217.44002940002247,"[np.float64(0.31851851851851853), np.float64(-0.13055555555555556)]","[np.float64(-0.07222222222222222), np.float64(0.28888888888888886)]","[0, 0]","[0, 0]","[1, 1]","[0.0005622000026050955, 2.832405099994503]","[None, 'target']",002,001,2025-09-30_19h47.00.454,Visual Search,,2025.1.1,60.02469416553057,2025-09-30 19h47.12.858348 +0530,
76,0,76,"[np.float64(-0.13055555555555556), np.float64(-0.10555555555555556)]","[np.float64(0.28888888888888886), np.float64(0.3074074074074074)]","[0, 0]","[0, 0]","[1, 1]","[0.0014174999960232526, 2.338401099987095]","[None, 'target']",76,0,76,0,217.48288340002182,,5,217.46956840000348,217.48288340002182,217.48288340002182,0.02923190000001341,219.8083719999995,"[np.float64(-0.13055555555555556), np.float64(-0.10555555555555556)]","[np.float64(0.28888888888888886), np.float64(0.3074074074074074)]","[0, 0]","[0, 0]","[1, 1]","[0.0014174999960232526, 2.338401099987095]","[None, 'target']",002,001,2025-09-30_19h47.00.454,Visual Search,,2025.1.1,60.02469416553057,2025-09-30 19h47.12.858348 +0530,
77,0,77,[np.float64(0.11944444444444445)],[np.float64(-0.462037037037037)],[0],[0],[1],[3.1133567000215407],['target'],77,0,77,0,219.87470780001604,,10,219.85986430000048,219.87470780001604,219.87470780001604,0.05059780000010505,222.97330400001374,[np.float64(0.11944444444444445)],[np.float64(-0.462037037037037)],[0],[0],[1],[3.1133567000215407],['target'],002,001,2025-09-30_19h47.00.454,Visual Search,,2025.1.1,60.02469416553057,2025-09-30 19h47.12.858348 +0530,
78,0,78,"[np.float64(0.11944444444444445), np.float64(-0.14907407407407408)]","[np.float64(-0.462037037037037), np.float64(0.26481481481481484)]","[0, 0]","[0, 0]","[1, 1]","[0.0009768999880179763, 3.364472699991893]","[None, 'target']",78,0,78,0,223.00335900002392,,5,222.99255480000284,223.00335900002392,223.00335900002392,0.019074399984674528,226.357436899998,"[np.float64(0.11944444444444445), np.float64(-0.14907407407407408)]","[np.float64(-0.462037037037037), np.float64(0.26481481481481484)]","[0, 0]","[0, 0]","[1, 1]","[0.0009768999880179763, 3.364472699991893]","[None, 'target']",002,001,2025-09-30_19h47.00.454,Visual Search,,2025.1.1,60.02469416553057,2025-09-30 19h47.12.858348 +0530,
79,0,79,[np.float64(-0.48148148148148145)],[np.float64(0.4925925925925926)],[0],[0],[1],[2.4844852999958675],['target'],79,0,79,0,226.42165030000615,,10,226.407391500019,226.42165030000615,226.42165030000615,0.04748690000269562,228.892304900015,[np.float64(-0.48148148148148145)],[np.float64(0.4925925925925926)],[0],[0],[1],[2.4844852999958675],['target'],002,001,2025-09-30_19h47.00.454,Visual Search,,2025.1.1,60.02469416553057,2025-09-30 19h47.12.858348 +0530,
80,0,80,[np.float64(0.019444444444444445)],[np.float64(0.5)],[0],[0],[1],[2.314382599986857],['target'],80,0,80,0,228.95708720001858,,10,228.94292070000665,228.95708720001858,228.95708720001858,0.049388500017812476,231.25741030002246,[np.float64(0.019444444444444445)],[np.float64(0.5)],[0],[0],[1],[2.314382599986857],['target'],002,001,2025-09-30_19h47.00.454,Visual Search,,2025.1.1,60.02469416553057,2025-09-30 19h47.12.858348 +0530,
81,0,81,[np.float64(-0.4675925925925926)],[np.float64(0.3888888888888889)],[0],[0],[1],[3.6601241000171285],['target'],81,0,81,0,231.28751910000574,,5,231.27799319999758,231.28751910000574,231.28751910000574,0.020242099999450147,234.93819800001802,[np.float64(-0.4675925925925926)],[np.float64(0.3888888888888889)],[0],[0],[1],[3.6601241000171285],['target'],002,001,2025-09-30_19h47.00.454,Visual Search,,2025.1.1,60.02469416553057,2025-09-30 19h47.12.858348 +0530,
82,0,82,"[np.float64(-0.4675925925925926), np.float64(-0.3175925925925926)]","[np.float64(0.3888888888888889), np.float64(0.2777777777777778)]","[0, 0]","[0, 0]","[1, 1]","[0.000518000015290454, 2.2171526000020094]","[None, 'target']",82,0,82,0,234.98719320000964,,10,234.97279920001165,234.98719320000964,234.98719320000964,0.0344145999988541,237.19005480001215,"[np.float64(-0.4675925925925926), np.float64(-0.3175925925925926)]","[np.float64(0.3888888888888889), np.float64(0.2777777777777778)]","[0, 0]","[0, 0]","[1, 1]","[0.000518000015290454, 2.2171526000020094]","[None, 'target']",002,001,2025-09-30_19h47.00.454,Visual Search,,2025.1.1,60.02469416553057,2025-09-30 19h47.12.858348 +0530,
83,0,83,"[np.float64(-0.3175925925925926), np.float64(0.32314814814814813)]","[np.float64(0.2777777777777778), np.float64(0.09166666666666666)]","[0, 0]","[0, 0]","[1, 1]","[0.0011743999784812331, 2.9105821999837644]","[None, 'target']",83,0,83,0,237.22386560001178,,5,237.21330400000443,237.22386560001178,237.22386560001178,0.023038100014673546,240.12430270001641,"[np.float64(-0.3175925925925926), np.float64(0.32314814814814813)]","[np.float64(0.2777777777777778), np.float64(0.09166666666666666)]","[0, 0]","[0, 0]","[1, 1]","[0.0011743999784812331, 2.9105821999837644]","[None, 'target']",002,001,2025-09-30_19h47.00.454,Visual Search,,2025.1.1,60.02469416553057,2025-09-30 19h47.12.858348 +0530,
84,0,84,"[np.float64(0.32314814814814813), np.float64(-0.2601851851851852)]","[np.float64(0.09166666666666666), np.float64(0.3685185185185185)]","[0, 0]","[0, 0]","[1, 1]","[0.0006084000051487237, 2.2799321000056807]","[None, 'target']",84,0,84,0,240.16962840000633,,5,240.15962970000692,240.16962840000633,240.16962840000633,0.03423560000373982,242.4397737000254,"[np.float64(0.32314814814814813), np.float64(-0.2601851851851852)]","[np.float64(0.09166666666666666), np.float64(0.3685185185185185)]","[0, 0]","[0, 0]","[1, 1]","[0.0006084000051487237, 2.2799321000056807]","[None, 'target']",002,001,2025-09-30_19h47.00.454,Visual Search,,2025.1.1,60.02469416553057,2025-09-30 19h47.12.858348 +0530,
85,0,85,[np.float64(0.21944444444444444)],[np.float64(0.462037037037037)],[0],[0],[1],[3.010460600024089],['target'],85,0,85,0,242.52638760002446,,10,242.5116468000051,242.52638760002446,242.52638760002446,0.0709119999955874,245.52218230001745,[np.float64(0.21944444444444444)],[np.float64(0.462037037037037)],[0],[0],[1],[3.010460600024089],['target'],002,001,2025-09-30_19h47.00.454,Visual Search,,2025.1.1,60.02469416553057,2025-09-30 19h47.12.858348 +0530,
86,0,86,"[np.float64(0.21944444444444444), np.float64(0.4287037037037037)]","[np.float64(0.462037037037037), np.float64(-0.09444444444444444)]","[0, 0]","[0, 0]","[1, 1]","[0.000669400003971532, 2.384816799982218]","[None, 'target']",86,0,86,0,245.54636690000189,,5,245.53757340001175,245.54636690000189,245.54636690000189,0.015083699981914833,247.92278380002244,"[np.float64(0.21944444444444444), np.float64(0.4287037037037037)]","[np.float64(0.462037037037037), np.float64(-0.09444444444444444)]","[0, 0]","[0, 0]","[1, 1]","[0.000669400003971532, 2.384816799982218]","[None, 'target']",002,001,2025-09-30_19h47.00.454,Visual Search,,2025.1.1,60.02469416553057,2025-09-30 19h47.12.858348 +0530,
87,0,87,[np.float64(-0.37777777777777777)],[np.float64(-0.2759259259259259)],[0],[0],[1],[2.6427373999904376],['target'],87,0,87,0,247.95403490000172,,5,247.94442910002545,247.95403490000172,247.95403490000172,0.02049080000142567,250.58723070000997,[np.float64(-0.37777777777777777)],[np.float64(-0.2759259259259259)],[0],[0],[1],[2.6427373999904376],['target'],002,001,2025-09-30_19h47.00.454,Visual Search,,2025.1.1,60.02469416553057,2025-09-30 19h47.12.858348 +0530,
88,0,88,"[np.float64(-0.37777777777777777), np.float64(-0.4935185185185185)]","[np.float64(-0.2759259259259259), np.float64(-0.43333333333333335)]","[0, 0]","[0, 0]","[1, 1]","[0.0004896000027656555, 3.5708907999796793]","[None, 'target']",88,0,88,0,250.63061940000625,,10,250.61548860001494,250.63061940000625,250.63061940000625,0.028106299985665828,254.18649300001562,"[np.float64(-0.37777777777777777), np.float64(-0.4935185185185185)]","[np.float64(-0.2759259259259259), np.float64(-0.43333333333333335)]","[0, 0]","[0, 0]","[1, 1]","[0.0004896000027656555, 3.5708907999796793]","[None, 'target']",002,001,2025-09-30_19h47.00.454,Visual Search,,2025.1.1,60.02469416553057,2025-09-30 19h47.12.858348 +0530,
89,0,89,[np.float64(-0.021296296296296296)],[np.float64(0.08518518518518518)],[0],[0],[1],[2.837431599997217],['target'],89,0,89,0,254.23094340000534,,10,254.21633650001604,254.23094340000534,254.23094340000534,0.02955509998719208,257.0539015000104,[np.float64(-0.021296296296296296)],[np.float64(0.08518518518518518)],[0],[0],[1],[2.837431599997217],['target'],002,001,2025-09-30_19h47.00.454,Visual Search,,2025.1.1,60.02469416553057,2025-09-30 19h47.12.858348 +0530,
90,0,90,"[np.float64(-0.021296296296296296), np.float64(0.48148148148148145)]","[np.float64(0.08518518518518518), np.float64(0.2212962962962963)]","[0, 0]","[0, 0]","[1, 1]","[0.0006138000171631575, 3.1101023000082932]","[None, 'target']",90,0,90,0,257.08903690002626,,5,257.0793997000146,257.08903690002626,257.08903690002626,0.025155000010272488,260.1897331000073,"[np.float64(-0.021296296296296296), np.float64(0.48148148148148145)]","[np.float64(0.08518518518518518), np.float64(0.2212962962962963)]","[0, 0]","[0, 0]","[1, 1]","[0.0006138000171631575, 3.1101023000082932]","[None, 'target']",002,001,2025-09-30_19h47.00.454,Visual Search,,2025.1.1,60.02469416553057,2025-09-30 19h47.12.858348 +0530,
91,0,91,[np.float64(0.1925925925925926)],[np.float64(-0.30092592592592593)],[0],[0],[1],[3.1591578999941703],['target'],91,0,91,0,260.2573088000063,,10,260.2431419000204,260.2573088000063,260.2573088000063,0.05269169999519363,263.4023976000026,[np.float64(0.1925925925925926)],[np.float64(-0.30092592592592593)],[0],[0],[1],[3.1591578999941703],['target'],002,001,2025-09-30_19h47.00.454,Visual Search,,2025.1.1,60.02469416553057,2025-09-30 19h47.12.858348 +0530,
92,0,92,"[np.float64(0.1925925925925926), np.float64(0.05648148148148148)]","[np.float64(-0.30092592592592593), np.float64(-0.4324074074074074)]","[0, 0]","[0, 0]","[1, 1]","[0.0011099999828729779, 2.2565325999748893]","[None, 'target']",92,0,92,0,263.4410040000221,,5,263.42923020001035,263.4410040000221,263.4410040000221,0.026650000014342368,265.68597670001327,"[np.float64(0.1925925925925926), np.float64(0.05648148148148148)]","[np.float64(-0.30092592592592593), np.float64(-0.4324074074074074)]","[0, 0]","[0, 0]","[1, 1]","[0.0011099999828729779, 2.2565325999748893]","[None, 'target']",002,001,2025-09-30_19h47.00.454,Visual Search,,2025.1.1,60.02469416553057,2025-09-30 19h47.12.858348 +0530,
93,0,93,[np.float64(0.4361111111111111)],[np.float64(-0.03981481481481482)],[0],[0],[1],[5.458557000005385],['target'],93,0,93,0,265.75710290001007,,10,265.74288590002107,265.75710290001007,265.75710290001007,0.05622679999214597,271.2015861000109,[np.float64(0.4361111111111111)],[np.float64(-0.03981481481481482)],[0],[0],[1],[5.458557000005385],['target'],002,001,2025-09-30_19h47.00.454,Visual Search,,2025.1.1,60.02469416553057,2025-09-30 19h47.12.858348 +0530,
94,0,94,"[np.float64(0.4361111111111111), np.float64(-0.425)]","[np.float64(-0.03981481481481482), np.float64(-0.1787037037037037)]","[0, 0]","[0, 0]","[1, 1]","[0.001233399991178885, 3.109394200000679]","[None, 'target']",94,0,94,0,271.24177340001916,,5,271.22760170002584,271.24177340001916,271.24177340001916,0.02569130001938902,274.33721880000667,"[np.float64(0.4361111111111111), np.float64(-0.425)]","[np.float64(-0.03981481481481482), np.float64(-0.1787037037037037)]","[0, 0]","[0, 0]","[1, 1]","[0.001233399991178885, 3.109394200000679]","[None, 'target']",002,001,2025-09-30_19h47.00.454,Visual Search,,2025.1.1,60.02469416553057,2025-09-30 19h47.12.858348 +0530,
95,0,95,[np.float64(-0.4759259259259259)],[np.float64(-0.34814814814814815)],[0],[0],[1],[2.2279802999983076],['target'],95,0,95,0,274.40448330002255,,10,274.3894935999997,274.40448330002255,274.40448330002255,0.05174530000658706,276.61753980000503,[np.float64(-0.4759259259259259)],[np.float64(-0.34814814814814815)],[0],[0],[1],[2.2279802999983076],['target'],002,001,2025-09-30_19h47.00.454,Visual Search,,2025.1.1,60.02469416553057,2025-09-30 19h47.12.858348 +0530,
96,0,96,"[np.float64(-0.4759259259259259), np.float64(-0.4185185185185185)]","[np.float64(-0.34814814814814815), np.float64(-0.36944444444444446)]","[0, 0]","[0, 0]","[1, 1]","[0.0006622000073548406, 1.919349500007229]","[None, 'target']",96,0,96,0,276.64239400002407,,5,276.6332786999992,276.64239400002407,276.64239400002407,0.01556430000346154,278.5528777000145,"[np.float64(-0.4759259259259259), np.float64(-0.4185185185185185)]","[np.float64(-0.34814814814814815), np.float64(-0.36944444444444446)]","[0, 0]","[0, 0]","[1, 1]","[0.0006622000073548406, 1.919349500007229]","[None, 'target']",002,001,2025-09-30_19h47.00.454,Visual Search,,2025.1.1,60.02469416553057,2025-09-30 19h47.12.858348 +0530,
97,0,97,"[np.float64(-0.4185185185185185), np.float64(0.1388888888888889)]","[np.float64(-0.36944444444444446), np.float64(0.027777777777777776)]","[0, 0]","[0, 0]","[1, 1]","[0.0005490999901667237, 2.9272433999867644]","[None, 'target']",97,0,97,0,278.5988277000142,,5,278.58987419999903,278.5988277000142,278.5988277000142,0.03649890000815503,281.51723930001026,"[np.float64(-0.4185185185185185), np.float64(0.1388888888888889)]","[np.float64(-0.36944444444444446), np.float64(0.027777777777777776)]","[0, 0]","[0, 0]","[1, 1]","[0.0005490999901667237, 2.9272433999867644]","[None, 'target']",002,001,2025-09-30_19h47.00.454,Visual Search,,2025.1.1,60.02469416553057,2025-09-30 19h47.12.858348 +0530,
98,0,98,[np.float64(0.14722222222222223)],[np.float64(-0.3074074074074074)],[0],[0],[1],[1.68673950000084],['target'],98,0,98,0,281.5627786000259,,10,281.54828080002335,281.5627786000259,281.5627786000259,0.030728099984116852,283.2351517000061,[np.float64(0.14722222222222223)],[np.float64(-0.3074074074074074)],[0],[0],[1],[1.68673950000084],['target'],002,001,2025-09-30_19h47.00.454,Visual Search,,2025.1.1,60.02469416553057,2025-09-30 19h47.12.858348 +0530,
99,0,99,[np.float64(0.4166666666666667)],[np.float64(0.32037037037037036)],[0],[0],[1],[2.3454777999722864],['target'],99,0,99,0,283.28568160001305,,10,283.27087440001196,283.28568160001305,283.28568160001305,0.035332600004039705,285.61642080001184,[np.float64(0.4166666666666667)],[np.float64(0.32037037037037036)],[0],[0],[1],[2.3454777999722864],['target'],002,001,2025-09-30_19h47.00.454,Visual Search,,2025.1.1,60.02469416553057,2025-09-30 19h47.12.858348 +0530,
100,0,100,[np.float64(-0.49722222222222223)],[np.float64(-0.41574074074074074)],[0],[0],[1],[3.4210804000031203],['target'],100,0,100,0,285.6424118000141,,5,285.63320720000775,285.6424118000141,285.6424118000141,0.016637900000205263,289.05455030000303,[np.float64(-0.49722222222222223)],[np.float64(-0.41574074074074074)],[0],[0],[1],[3.4210804000031203],['target'],002,001,2025-09-30_19h47.00.454,Visual Search,,2025.1.1,60.02469416553057,2025-09-30 19h47.12.858348 +0530,
101,0,101,[np.float64(0.4925925925925926)],[np.float64(-0.45185185185185184)],[0],[0],[1],[2.4646840000059456],['target'],101,0,101,0,289.09703650002484,,5,289.0874655000225,289.09703650002484,289.09703650002484,0.032423999975435436,291.55262120001134,[np.float64(0.4925925925925926)],[np.float64(-0.45185185185185184)],[0],[0],[1],[2.4646840000059456],['target'],002,001,2025-09-30_19h47.00.454,Visual Search,,2025.1.1,60.02469416553057,2025-09-30 19h47.12.858348 +0530,
102,0,102,[np.float64(0.19814814814814816)],[np.float64(0.28888888888888886)],[0],[0],[1],[3.086645800009137],['target'],102,0,102,0,291.58884780001245,,5,291.57904229999986,291.58884780001245,291.58884780001245,0.025330000004032627,294.6657543000183,[np.float64(0.19814814814814816)],[np.float64(0.28888888888888886)],[0],[0],[1],[3.086645800009137],['target'],002,001,2025-09-30_19h47.00.454,Visual Search,,2025.1.1,60.02469416553057,2025-09-30 19h47.12.858348 +0530,
103,0,103,"[np.float64(0.19814814814814816), np.float64(0.014814814814814815)]","[np.float64(0.28888888888888886), np.float64(-0.05)]","[0, 0]","[0, 0]","[1, 1]","[0.0006533999985549599, 2.5187560000049416]","[None, 'target']",103,0,103,0,294.69023430001107,,5,294.68101490000845,294.69023430001107,294.69023430001107,0.015117700007976964,297.1999804000079,"[np.float64(0.19814814814814816), np.float64(0.014814814814814815)]","[np.float64(0.28888888888888886), np.float64(-0.05)]","[0, 0]","[0, 0]","[1, 1]","[0.0006533999985549599, 2.5187560000049416]","[None, 'target']",002,001,2025-09-30_19h47.00.454,Visual Search,,2025.1.1,60.02469416553057,2025-09-30 19h47.12.858348 +0530,
104,0,104,"[np.float64(0.014814814814814815), np.float64(0.08981481481481482)]","[np.float64(-0.05), np.float64(-0.4759259259259259)]","[0, 0]","[0, 0]","[1, 1]","[0.0010012999991886318, 1.5660935000050813]","[None, 'target']",104,0,104,0,297.2508730000118,,5,297.23757250001654,297.2508730000118,297.2508730000118,0.03712900000391528,298.80387390000396,"[np.float64(0.014814814814814815), np.float64(0.08981481481481482)]","[np.float64(-0.05), np.float64(-0.4759259259259259)]","[0, 0]","[0, 0]","[1, 1]","[0.0010012999991886318, 1.5660935000050813]","[None, 'target']",002,001,2025-09-30_19h47.00.454,Visual Search,,2025.1.1,60.02469416553057,2025-09-30 19h47.12.858348 +0530,
105,0,105,[np.float64(0.21388888888888888)],[np.float64(0.3611111111111111)],[0],[0],[1],[2.6541989000106696],['target'],105,0,105,0,298.8761921999976,,10,298.86186070000986,298.8761921999976,298.8761921999976,0.05743040001834743,301.5162786000001,[np.float64(0.21388888888888888)],[np.float64(0.3611111111111111)],[0],[0],[1],[2.6541989000106696],['target'],002,001,2025-09-30_19h47.00.454,Visual Search,,2025.1.1,60.02469416553057,2025-09-30 19h47.12.858348 +0530,
106,0,106,"[np.float64(0.21388888888888888), np.float64(-0.13796296296296295)]","[np.float64(0.3611111111111111), np.float64(0.17777777777777778)]","[0, 0]","[0, 0]","[1, 1]","[0.0012679999927058816, 1.5766396999824792]","[None, 'target']",106,0,106,0,301.570709200023,,5,301.55795400001807,301.570709200023,301.570709200023,0.040938799997093156,303.13686450000387,"[np.float64(0.21388888888888888), np.float64(-0.13796296296296295)]","[np.float64(0.3611111111111111), np.float64(0.17777777777777778)]","[0, 0]","[0, 0]","[1, 1]","[0.0012679999927058816, 1.5766396999824792]","[None, 'target']",002,001,2025-09-30_19h47.00.454,Visual Search,,2025.1.1,60.02469416553057,2025-09-30 19h47.12.858348 +0530,
107,0,107,[np.float64(-0.10092592592592593)],[np.float64(0.12685185185185185)],[0],[0],[1],[2.258396899997024],['target'],107,0,107,0,303.2046403000131,,10,303.1900668000162,303.2046403000131,303.2046403000131,0.05167650000657886,305.44873200001894,[np.float64(-0.10092592592592593)],[np.float64(0.12685185185185185)],[0],[0],[1],[2.258396899997024],['target'],002,001,2025-09-30_19h47.00.454,Visual Search,,2025.1.1,60.02469416553057,2025-09-30 19h47.12.858348 +0530,
108,0,108,[np.float64(0.12129629629629629)],[np.float64(0.17777777777777778)],[0],[0],[1],[1.7320442000054754],['target'],108,0,108,0,305.49968060001265,,10,305.4852322000079,305.49968060001265,305.49968060001265,0.035814100003335625,307.21760090001044,[np.float64(0.12129629629629629)],[np.float64(0.17777777777777778)],[0],[0],[1],[1.7320442000054754],['target'],002,001,2025-09-30_19h47.00.454,Visual Search,,2025.1.1,60.02469416553057,2025-09-30 19h47.12.858348 +0530,
109,0,109,[np.float64(0.33796296296296297)],[np.float64(0.17962962962962964)],[0],[0],[1],[2.3689691000035964],['target'],109,0,109,0,307.27805690001696,,10,307.2637471000198,307.27805690001696,307.27805690001696,0.044927300012204796,309.6329321000085,[np.float64(0.33796296296296297)],[np.float64(0.17962962962962964)],[0],[0],[1],[2.3689691000035964],['target'],002,001,2025-09-30_19h47.00.454,Visual Search,,2025.1.1,60.02469416553057,2025-09-30 19h47.12.858348 +0530,
110,0,110,"[np.float64(0.33796296296296297), np.float64(-0.425)]","[np.float64(0.17962962962962964), np.float64(-0.45092592592592595)]","[0, 0]","[0, 0]","[1, 1]","[0.0010325999755878001, 2.84802039997885]","[None, 'target']",110,0,110,0,309.68498920000275,,5,309.6728582000069,309.68498920000275,309.68498920000275,0.039433600002666935,312.5212738000264,"[np.float64(0.33796296296296297), np.float64(-0.425)]","[np.float64(0.17962962962962964), np.float64(-0.45092592592592595)]","[0, 0]","[0, 0]","[1, 1]","[0.0010325999755878001, 2.84802039997885]","[None, 'target']",002,001,2025-09-30_19h47.00.454,Visual Search,,2025.1.1,60.02469416553057,2025-09-30 19h47.12.858348 +0530,
111,0,111,[np.float64(0.2222222222222222)],[np.float64(-0.05092592592592592)],[0],[0],[1],[3.312569200003054],['target'],111,0,111,0,312.5859520000231,,10,312.5715006000246,312.5859520000231,312.5859520000231,0.049218000000109896,315.88447030002135,[np.float64(0.2222222222222222)],[np.float64(-0.05092592592592592)],[0],[0],[1],[3.312569200003054],['target'],002,001,2025-09-30_19h47.00.454,Visual Search,,2025.1.1,60.02469416553057,2025-09-30 19h47.12.858348 +0530,
112,0,112,"[np.float64(0.2222222222222222), np.float64(0.28055555555555556)]","[np.float64(-0.05092592592592592), np.float64(-0.3490740740740741)]","[0, 0]","[0, 0]","[1, 1]","[0.001273300003958866, 1.9747047999990173]","[None, 'target']",112,0,112,0,315.93729130001157,,5,315.9230388000142,315.93729130001157,315.93729130001157,0.03728730001603253,317.8979511000216,"[np.float64(0.2222222222222222), np.float64(0.28055555555555556)]","[np.float64(-0.05092592592592592), np.float64(-0.3490740740740741)]","[0, 0]","[0, 0]","[1, 1]","[0.001273300003958866, 1.9747047999990173]","[None, 'target']",002,001,2025-09-30_19h47.00.454,Visual Search,,2025.1.1,60.02469416553057,2025-09-30 19h47.12.858348 +0530,
113,0,113,[np.float64(-0.20555555555555555)],[np.float64(-0.10648148148148148)],[0],[0],[1],[3.1396509000041988],['target'],113,0,113,0,317.943279500003,,10,317.9295053000096,317.943279500003,317.943279500003,0.030834799981676042,321.06960160000017,[np.float64(-0.20555555555555555)],[np.float64(-0.10648148148148148)],[0],[0],[1],[3.1396509000041988],['target'],002,001,2025-09-30_19h47.00.454,Visual Search,,2025.1.1,60.02469416553057,2025-09-30 19h47.12.858348 +0530,
114,0,114,[np.float64(0.29444444444444445)],[np.float64(-0.3787037037037037)],[0],[0],[1],[2.1120995999954175],['target'],114,0,114,0,321.14966250001453,,10,321.1354784000141,321.14966250001453,321.14966250001453,0.06490009999834001,323.24770470001386,[np.float64(0.29444444444444445)],[np.float64(-0.3787037037037037)],[0],[0],[1],[2.1120995999954175],['target'],002,001,2025-09-30_19h47.00.454,Visual Search,,2025.1.1,60.02469416553057,2025-09-30 19h47.12.858348 +0530,
115,0,115,"[np.float64(0.29444444444444445), np.float64(0.2564814814814815)]","[np.float64(-0.3787037037037037), np.float64(0.3768518518518518)]","[0, 0]","[0, 0]","[1, 1]","[0.001267199986614287, 2.370112100004917]","[None, 'target']",115,0,115,0,323.29038940000464,,5,323.2774804000219,323.29038940000464,323.29038940000464,0.029414799995720387,325.64780710000196,"[np.float64(0.29444444444444445), np.float64(0.2564814814814815)]","[np.float64(-0.3787037037037037), np.float64(0.3768518518518518)]","[0, 0]","[0, 0]","[1, 1]","[0.001267199986614287, 2.370112100004917]","[None, 'target']",002,001,2025-09-30_19h47.00.454,Visual Search,,2025.1.1,60.02469416553057,2025-09-30 19h47.12.858348 +0530,
116,0,116,[np.float64(-0.03333333333333333)],[np.float64(0.14074074074074075)],[0],[0],[1],[2.0184602000226732],['target'],116,0,116,0,325.6884871000075,,5,325.67974890000187,325.6884871000075,325.6884871000075,0.030825800000457093,327.69844740000553,[np.float64(-0.03333333333333333)],[np.float64(0.14074074074074075)],[0],[0],[1],[2.0184602000226732],['target'],002,001,2025-09-30_19h47.00.454,Visual Search,,2025.1.1,60.02469416553057,2025-09-30 19h47.12.858348 +0530,
117,0,117,[np.float64(0.08055555555555556)],[np.float64(-0.025)],[0],[0],[1],[1.7258611000142992],['target'],117,0,117,0,327.76695520000067,,10,327.75318350002635,327.76695520000067,327.76695520000067,0.05398520000744611,329.47920370000065,[np.float64(0.08055555555555556)],[np.float64(-0.025)],[0],[0],[1],[1.7258611000142992],['target'],002,001,2025-09-30_19h47.00.454,Visual Search,,2025.1.1,60.02469416553057,2025-09-30 19h47.12.858348 +0530,
118,0,118,"[np.float64(0.08055555555555556), np.float64(0.062037037037037036)]","[np.float64(-0.025), np.float64(0.04722222222222222)]","[0, 0]","[0, 0]","[1, 1]","[0.0008033000049181283, 1.3608331000141334]","[None, 'target']",118,0,118,0,329.5121588000038,,5,329.5017332000134,329.5121588000038,329.5121588000038,0.02218850000645034,330.8627873000223,"[np.float64(0.08055555555555556), np.float64(0.062037037037037036)]","[np.float64(-0.025), np.float64(0.04722222222222222)]","[0, 0]","[0, 0]","[1, 1]","[0.0008033000049181283, 1.3608331000141334]","[None, 'target']",002,001,2025-09-30_19h47.00.454,Visual Search,,2025.1.1,60.02469416553057,2025-09-30 19h47.12.858348 +0530,
119,0,119,[np.float64(-0.2796296296296296)],[np.float64(-0.4046296296296296)],[0],[0],[1],[2.677507299988065],['target'],119,0,119,0,330.9150001000089,,10,330.9007542000036,330.9150001000089,330.9150001000089,0.03680040000472218,333.5783304000215,[np.float64(-0.2796296296296296)],[np.float64(-0.4046296296296296)],[0],[0],[1],[2.677507299988065],['target'],002,001,2025-09-30_19h47.00.454,Visual Search,,2025.1.1,60.02469416553057,2025-09-30 19h47.12.858348 +0530,
120,0,120,"[np.float64(-0.2796296296296296), np.float64(-0.1037037037037037)]","[np.float64(-0.4046296296296296), np.float64(-0.2)]","[0, 0]","[0, 0]","[1, 1]","[0.0008731000125408173, 4.648761000018567]","[None, 'target']",120,0,120,0,333.60729140002513,,5,333.5976474000199,333.60729140002513,333.60729140002513,0.01917489999323152,338.24656920001144,"[np.float64(-0.2796296296296296), np.float64(-0.1037037037037037)]","[np.float64(-0.4046296296296296), np.float64(-0.2)]","[0, 0]","[0, 0]","[1, 1]","[0.0008731000125408173, 4.648761000018567]","[None, 'target']",002,001,2025-09-30_19h47.00.454,Visual Search,,2025.1.1,60.02469416553057,2025-09-30 19h47.12.858348 +0530,
121,0,121,"[np.float64(-0.1037037037037037), np.float64(0.14722222222222223)]","[np.float64(-0.2), np.float64(-0.20925925925925926)]","[0, 0]","[0, 0]","[1, 1]","[0.0005129000055603683, 3.2800363000133075]","[None, 'target']",121,0,121,0,338.3112838000234,,10,338.2974145000044,338.3112838000234,338.3112838000234,0.05051699999603443,341.57751950001693,"[np.float64(-0.1037037037037037), np.float64(0.14722222222222223)]","[np.float64(-0.2), np.float64(-0.20925925925925926)]","[0, 0]","[0, 0]","[1, 1]","[0.0005129000055603683, 3.2800363000133075]","[None, 'target']",002,001,2025-09-30_19h47.00.454,Visual Search,,2025.1.1,60.02469416553057,2025-09-30 19h47.12.858348 +0530,
122,0,122,"[np.float64(0.14722222222222223), np.float64(0.18888888888888888)]","[np.float64(-0.20925925925925926), np.float64(0.49907407407407406)]","[0, 0]","[0, 0]","[1, 1]","[0.0011439000081736594, 2.933263899991289]","[None, 'target']",122,0,122,0,341.60327570000663,,5,341.5938460000034,341.60327570000663,341.60327570000663,0.016165400011232123,344.52718810000806,"[np.float64(0.14722222222222223), np.float64(0.18888888888888888)]","[np.float64(-0.20925925925925926), np.float64(0.49907407407407406)]","[0, 0]","[0, 0]","[1, 1]","[0.0011439000081736594, 2.933263899991289]","[None, 'target']",002,001,2025-09-30_19h47.00.454,Visual Search,,2025.1.1,60.02469416553057,2025-09-30 19h47.12.858348 +0530,
123,0,123,[np.float64(-0.2759259259259259)],[np.float64(0.2212962962962963)],[0],[0],[1],[2.9352905999985524],['target'],123,0,123,0,344.57390070002293,,10,344.55895350000355,344.57390070002293,344.57390070002293,0.03160849999403581,347.49435860000085,[np.float64(-0.2759259259259259)],[np.float64(0.2212962962962963)],[0],[0],[1],[2.9352905999985524],['target'],002,001,2025-09-30_19h47.00.454,Visual Search,,2025.1.1,60.02469416553057,2025-09-30 19h47.12.858348 +0530,
124,0,124,"[np.float64(-0.2759259259259259), np.float64(-0.001851851851851852)]","[np.float64(0.2212962962962963), np.float64(-0.058333333333333334)]","[0, 0]","[0, 0]","[1, 1]","[0.0008723999781068414, 2.2676262999884784]","[None, 'target']",124,0,124,0,347.5372454000171,,5,347.5277191000059,347.5372454000171,347.5372454000171,0.03282190000754781,349.79554859999917,"[np.float64(-0.2759259259259259), np.float64(-0.001851851851851852)]","[np.float64(0.2212962962962963), np.float64(-0.058333333333333334)]","[0, 0]","[0, 0]","[1, 1]","[0.0008723999781068414, 2.2676262999884784]","[None, 'target']",002,001,2025-09-30_19h47.00.454,Visual Search,,2025.1.1,60.02469416553057,2025-09-30 19h47.12.858348 +0530,
125,0,125,"[np.float64(-0.001851851851851852), np.float64(0.16296296296296298)]","[np.float64(-0.058333333333333334), np.float64(0.3388888888888889)]","[0, 0]","[0, 0]","[1, 1]","[0.0008471999899484217, 2.237138700002106]","[None, 'target']",125,0,125,0,349.85171810002066,,5,349.83998310001334,349.85171810002066,349.85171810002066,0.04395210000802763,352.0771972000075,"[np.float64(-0.001851851851851852), np.float64(0.16296296296296298)]","[np.float64(-0.058333333333333334), np.float64(0.3388888888888889)]","[0, 0]","[0, 0]","[1, 1]","[0.0008471999899484217, 2.237138700002106]","[None, 'target']",002,001,2025-09-30_19h47.00.454,Visual Search,,2025.1.1,60.02469416553057,2025-09-30 19h47.12.858348 +0530,
126,0,126,"[np.float64(0.16296296296296298), np.float64(-0.4388888888888889)]","[np.float64(0.3388888888888889), np.float64(0.014814814814814815)]","[0, 0]","[0, 0]","[1, 1]","[0.0006227000267244875, 2.564930100023048]","[None, 'target']",126,0,126,0,352.1299034000258,,10,352.11154610000085,352.1299034000258,352.1299034000258,0.03408919999492355,354.6765951999987,"[np.float64(0.16296296296296298), np.float64(-0.4388888888888889)]","[np.float64(0.3388888888888889), np.float64(0.014814814814814815)]","[0, 0]","[0, 0]","[1, 1]","[0.0006227000267244875, 2.564930100023048]","[None, 'target']",002,001,2025-09-30_19h47.00.454,Visual Search,,2025.1.1,60.02469416553057,2025-09-30 19h47.12.858348 +0530,
127,0,127,"[np.float64(-0.4388888888888889), np.float64(-0.14814814814814814)]","[np.float64(0.014814814814814815), np.float64(0.049074074074074076)]","[0, 0]","[0, 0]","[1, 1]","[0.0006693000032100827, 2.6149397999979556]","[None, 'target']",127,0,127,0,354.70864560001064,,5,354.6997318000067,354.70864560001064,354.70864560001064,0.022811100003309548,357.31492360000266,"[np.float64(-0.4388888888888889), np.float64(-0.14814814814814814)]","[np.float64(0.014814814814814815), np.float64(0.049074074074074076)]","[0, 0]","[0, 0]","[1, 1]","[0.0006693000032100827, 2.6149397999979556]","[None, 'target']",002,001,2025-09-30_19h47.00.454,Visual Search,,2025.1.1,60.02469416553057,2025-09-30 19h47.12.858348 +0530,
128,0,128,"[np.float64(-0.14814814814814814), np.float64(-0.15185185185185185)]","[np.float64(0.049074074074074076), np.float64(-0.08796296296296297)]","[0, 0]","[0, 0]","[1, 1]","[0.0013097000191919506, 4.29971000002115]","[None, 'target']",128,0,128,0,357.37213400000473,,5,357.3597807000042,357.37213400000473,357.37213400000473,0.04414790001465008,361.6595897000225,"[np.float64(-0.14814814814814814), np.float64(-0.15185185185185185)]","[np.float64(0.049074074074074076), np.float64(-0.08796296296296297)]","[0, 0]","[0, 0]","[1, 1]","[0.0013097000191919506, 4.29971000002115]","[None, 'target']",002,001,2025-09-30_19h47.00.454,Visual Search,,2025.1.1,60.02469416553057,2025-09-30 19h47.12.858348 +0530,
129,0,129,"[np.float64(-0.15185185185185185), np.float64(0.2675925925925926)]","[np.float64(-0.08796296296296297), np.float64(-0.14629629629629629)]","[0, 0]","[0, 0]","[1, 1]","[0.0005473000055644661, 4.675434200005839]","[None, 'target']",129,0,129,0,361.7141183000058,,10,361.69989879999775,361.7141183000058,361.7141183000058,0.03999720001593232,366.3754223000142,"[np.float64(-0.15185185185185185), np.float64(0.2675925925925926)]","[np.float64(-0.08796296296296297), np.float64(-0.14629629629629629)]","[0, 0]","[0, 0]","[1, 1]","[0.0005473000055644661, 4.675434200005839]","[None, 'target']",002,001,2025-09-30_19h47.00.454,Visual Search,,2025.1.1,60.02469416553057,2025-09-30 19h47.12.858348 +0530,
130,0,130,"[np.float64(0.2675925925925926), np.float64(-0.36203703703703705)]","[np.float64(-0.14629629629629629), np.float64(-0.3888888888888889)]","[0, 0]","[0, 0]","[1, 1]","[0.0007739999855402857, 2.3462921000027563]","[None, 'target']",130,0,130,0,366.4052522999991,,5,366.3960125000158,366.4052522999991,366.4052522999991,0.020336799992946908,368.74246470001526,"[np.float64(0.2675925925925926), np.float64(-0.36203703703703705)]","[np.float64(-0.14629629629629629), np.float64(-0.3888888888888889)]","[0, 0]","[0, 0]","[1, 1]","[0.0007739999855402857, 2.3462921000027563]","[None, 'target']",002,001,2025-09-30_19h47.00.454,Visual Search,,2025.1.1,60.02469416553057,2025-09-30 19h47.12.858348 +0530,
131,0,131,"[np.float64(-0.36203703703703705), np.float64(0.4398148148148148)]","[np.float64(-0.3888888888888889), np.float64(0.2175925925925926)]","[0, 0]","[0, 0]","[1, 1]","[0.0005344000237528235, 2.8094496999983676]","[None, 'target']",131,0,131,0,368.79623970002285,,10,368.7817618000263,368.79623970002285,368.79623970002285,0.03885519999312237,371.5912792000163,"[np.float64(-0.36203703703703705), np.float64(0.4398148148148148)]","[np.float64(-0.3888888888888889), np.float64(0.2175925925925926)]","[0, 0]","[0, 0]","[1, 1]","[0.0005344000237528235, 2.8094496999983676]","[None, 'target']",002,001,2025-09-30_19h47.00.454,Visual Search,,2025.1.1,60.02469416553057,2025-09-30 19h47.12.858348 +0530,
132,0,132,"[np.float64(0.4398148148148148), np.float64(-0.4888888888888889)]","[np.float64(0.2175925925925926), np.float64(-0.016666666666666666)]","[0, 0]","[0, 0]","[1, 1]","[0.0007241000130306929, 4.269564500020351]","[None, 'target']",132,0,132,0,371.616709599999,,5,371.60749260001467,371.616709599999,371.616709599999,0.016033099993364885,375.8773101000115,"[np.float64(0.4398148148148148), np.float64(-0.4888888888888889)]","[np.float64(0.2175925925925926), np.float64(-0.016666666666666666)]","[0, 0]","[0, 0]","[1, 1]","[0.0007241000130306929, 4.269564500020351]","[None, 'target']",002,001,2025-09-30_19h47.00.454,Visual Search,,2025.1.1,60.02469416553057,2025-09-30 19h47.12.858348 +0530,
133,0,133,"[np.float64(-0.4888888888888889), np.float64(-0.2824074074074074)]","[np.float64(-0.016666666666666666), np.float64(-0.026851851851851852)]","[0, 0]","[0, 0]","[1, 1]","[0.00046789998305030167, 3.004237099987222]","[None, 'target']",133,0,133,0,375.93410559999757,,10,375.91971300001023,375.93410559999757,375.93410559999757,0.041707999975187704,378.92403760002344,"[np.float64(-0.4888888888888889), np.float64(-0.2824074074074074)]","[np.float64(-0.016666666666666666), np.float64(-0.026851851851851852)]","[0, 0]","[0, 0]","[1, 1]","[0.00046789998305030167, 3.004237099987222]","[None, 'target']",002,001,2025-09-30_19h47.00.454,Visual Search,,2025.1.1,60.02469416553057,2025-09-30 19h47.12.858348 +0530,
134,0,134,"[np.float64(-0.2824074074074074), np.float64(0.3990740740740741)]","[np.float64(-0.026851851851851852), np.float64(0.18333333333333332)]","[0, 0]","[0, 0]","[1, 1]","[0.000888100010342896, 4.39870410002186]","[None, 'target']",134,0,134,0,378.9511396000162,,5,378.9410315999994,378.9511396000162,378.9511396000162,0.016502700018463656,383.33987470000284,"[np.float64(-0.2824074074074074), np.float64(0.3990740740740741)]","[np.float64(-0.026851851851851852), np.float64(0.18333333333333332)]","[0, 0]","[0, 0]","[1, 1]","[0.000888100010342896, 4.39870410002186]","[None, 'target']",002,001,2025-09-30_19h47.00.454,Visual Search,,2025.1.1,60.02469416553057,2025-09-30 19h47.12.858348 +0530,
135,0,135,"[np.float64(0.3990740740740741), np.float64(-0.32037037037037036)]","[np.float64(0.18333333333333332), np.float64(-0.3287037037037037)]","[0, 0]","[0, 0]","[1, 1]","[0.0008054000209085643, 2.657781600020826]","[None, 'target']",135,0,135,0,383.3778049000248,,5,383.36582860001363,383.3778049000248,383.3778049000248,0.02564329997403547,386.02375560000655,"[np.float64(0.3990740740740741), np.float64(-0.32037037037037036)]","[np.float64(0.18333333333333332), np.float64(-0.3287037037037037)]","[0, 0]","[0, 0]","[1, 1]","[0.0008054000209085643, 2.657781600020826]","[None, 'target']",002,001,2025-09-30_19h47.00.454,Visual Search,,2025.1.1,60.02469416553057,2025-09-30 19h47.12.858348 +0530,
136,0,136,"[np.float64(-0.32037037037037036), np.float64(0.42407407407407405)]","[np.float64(-0.3287037037037037), np.float64(-0.46574074074074073)]","[0, 0]","[0, 0]","[1, 1]","[0.0007794999983161688, 4.2204839999903925]","[None, 'target']",136,0,136,0,386.0633444999985,,5,386.0526761000219,386.0633444999985,386.0633444999985,0.02857129997573793,390.273282500013,"[np.float64(-0.32037037037037036), np.float64(0.42407407407407405)]","[np.float64(-0.3287037037037037), np.float64(-0.46574074074074073)]","[0, 0]","[0, 0]","[1, 1]","[0.0007794999983161688, 4.2204839999903925]","[None, 'target']",002,001,2025-09-30_19h47.00.454,Visual Search,,2025.1.1,60.02469416553057,2025-09-30 19h47.12.858348 +0530,
137,0,137,"[np.float64(0.42407407407407405), np.float64(-0.16111111111111112)]","[np.float64(-0.46574074074074073), np.float64(0.48703703703703705)]","[0, 0]","[0, 0]","[1, 1]","[0.0008726999803911895, 3.6084542000025976]","[None, 'target']",137,0,137,0,390.34756890000426,,10,390.3310879000055,390.34756890000426,390.34756890000426,0.05752810000558384,393.939729900012,"[np.float64(0.42407407407407405), np.float64(-0.16111111111111112)]","[np.float64(-0.46574074074074073), np.float64(0.48703703703703705)]","[0, 0]","[0, 0]","[1, 1]","[0.0008726999803911895, 3.6084542000025976]","[None, 'target']",002,001,2025-09-30_19h47.00.454,Visual Search,,2025.1.1,60.02469416553057,2025-09-30 19h47.12.858348 +0530,
138,0,138,[np.float64(0.24444444444444444)],[np.float64(0.05648148148148148)],[0],[0],[1],[2.887911899975734],['target'],138,0,138,0,394.08316540002124,,10,394.06749460002175,394.08316540002124,394.08316540002124,0.12673349998658523,396.9554796000011,[np.float64(0.24444444444444444)],[np.float64(0.05648148148148148)],[0],[0],[1],[2.887911899975734],['target'],002,001,2025-09-30_19h47.00.454,Visual Search,,2025.1.1,60.02469416553057,2025-09-30 19h47.12.858348 +0530,
139,0,139,"[np.float64(0.24444444444444444), np.float64(-0.46574074074074073)]","[np.float64(0.05648148148148148), np.float64(-0.2851851851851852)]","[0, 0]","[0, 0]","[1, 1]","[0.0007299999997485429, 4.037897600006545]","[None, 'target']",139,0,139,0,396.98038610001095,,5,396.97165490000043,396.98038610001095,396.98038610001095,0.01599220000207424,401.0097820000083,"[np.float64(0.24444444444444444), np.float64(-0.46574074074074073)]","[np.float64(0.05648148148148148), np.float64(-0.2851851851851852)]","[0, 0]","[0, 0]","[1, 1]","[0.0007299999997485429, 4.037897600006545]","[None, 'target']",002,001,2025-09-30_19h47.00.454,Visual Search,,2025.1.1,60.02469416553057,2025-09-30 19h47.12.858348 +0530,
140,0,140,"[np.float64(-0.46574074074074073), np.float64(-0.2564814814814815)]","[np.float64(-0.2851851851851852), np.float64(-0.2712962962962963)]","[0, 0]","[0, 0]","[1, 1]","[0.0005429000011645257, 2.8103074000100605]","[None, 'target']",140,0,140,0,401.09324480002397,,10,401.07842420000816,401.09324480002397,401.09324480002397,0.06743589998222888,403.8889560000098,"[np.float64(-0.46574074074074073), np.float64(-0.2564814814814815)]","[np.float64(-0.2851851851851852), np.float64(-0.2712962962962963)]","[0, 0]","[0, 0]","[1, 1]","[0.0005429000011645257, 2.8103074000100605]","[None, 'target']",002,001,2025-09-30_19h47.00.454,Visual Search,,2025.1.1,60.02469416553057,2025-09-30 19h47.12.858348 +0530,
141,0,141,"[np.float64(-0.2564814814814815), np.float64(0.33796296296296297)]","[np.float64(-0.2712962962962963), np.float64(0.25277777777777777)]","[0, 0]","[0, 0]","[1, 1]","[0.001129099982790649, 2.406682200002251]","[None, 'target']",141,0,141,0,403.9447029000148,,5,403.93165140002384,403.9447029000148,403.9447029000148,0.04191920001176186,406.3385310000158,"[np.float64(-0.2564814814814815), np.float64(0.33796296296296297)]","[np.float64(-0.2712962962962963), np.float64(0.25277777777777777)]","[0, 0]","[0, 0]","[1, 1]","[0.001129099982790649, 2.406682200002251]","[None, 'target']",002,001,2025-09-30_19h47.00.454,Visual Search,,2025.1.1,60.02469416553057,2025-09-30 19h47.12.858348 +0530,
142,0,142,"[np.float64(0.33796296296296297), np.float64(0.09537037037037037)]","[np.float64(0.25277777777777777), np.float64(0.4027777777777778)]","[0, 0]","[0, 0]","[1, 1]","[0.0005637999856844544, 1.6747270000050776]","[None, 'target']",142,0,142,0,406.41229350000503,,10,406.3970130000089,406.41229350000503,406.41229350000503,0.057983300008345395,408.0718584000133,"[np.float64(0.33796296296296297), np.float64(0.09537037037037037)]","[np.float64(0.25277777777777777), np.float64(0.4027777777777778)]","[0, 0]","[0, 0]","[1, 1]","[0.0005637999856844544, 1.6747270000050776]","[None, 'target']",002,001,2025-09-30_19h47.00.454,Visual Search,,2025.1.1,60.02469416553057,2025-09-30 19h47.12.858348 +0530,
143,0,143,"[np.float64(0.09537037037037037), np.float64(0.45)]","[np.float64(0.4027777777777778), np.float64(0.30277777777777776)]","[0, 0]","[0, 0]","[1, 1]","[0.000957600015681237, 2.3938004999945406]","[None, 'target']",143,0,143,0,408.10415820000344,,5,408.0933991000056,408.10415820000344,408.10415820000344,0.021120999997947365,410.4873330000264,"[np.float64(0.09537037037037037), np.float64(0.45)]","[np.float64(0.4027777777777778), np.float64(0.30277777777777776)]","[0, 0]","[0, 0]","[1, 1]","[0.000957600015681237, 2.3938004999945406]","[None, 'target']",002,001,2025-09-30_19h47.00.454,Visual Search,,2025.1.1,60.02469416553057,2025-09-30 19h47.12.858348 +0530,
144,0,144,"[np.float64(0.45), np.float64(0.4759259259259259)]","[np.float64(0.30277777777777776), np.float64(0.023148148148148147)]","[0, 0]","[0, 0]","[1, 1]","[0.000544599985005334, 3.5510070999735035]","[None, 'target']",144,0,144,0,410.5501499000238,,10,410.53579340002034,410.5501499000238,410.5501499000238,0.04819230001885444,414.0869173000101,"[np.float64(0.45), np.float64(0.4759259259259259)]","[np.float64(0.30277777777777776), np.float64(0.023148148148148147)]","[0, 0]","[0, 0]","[1, 1]","[0.000544599985005334, 3.5510070999735035]","[None, 'target']",002,001,2025-09-30_19h47.00.454,Visual Search,,2025.1.1,60.02469416553057,2025-09-30 19h47.12.858348 +0530,
145,0,145,"[np.float64(0.4759259259259259), np.float64(-0.2851851851851852)]","[np.float64(0.023148148148148147), np.float64(-0.31574074074074077)]","[0, 0]","[0, 0]","[1, 1]","[0.0008078999817371368, 2.3197759999893606]","[None, 'target']",145,0,145,0,414.14908520001336,,10,414.13353730001836,414.14908520001336,414.14908520001336,0.04631460001110099,416.4533794000163,"[np.float64(0.4759259259259259), np.float64(-0.2851851851851852)]","[np.float64(0.023148148148148147), np.float64(-0.31574074074074077)]","[0, 0]","[0, 0]","[1, 1]","[0.0008078999817371368, 2.3197759999893606]","[None, 'target']",002,001,2025-09-30_19h47.00.454,Visual Search,,2025.1.1,60.02469416553057,2025-09-30 19h47.12.858348 +0530,
146,0,146,"[np.float64(-0.2851851851851852), np.float64(0.41574074074074074)]","[np.float64(-0.31574074074074077), np.float64(-0.1814814814814815)]","[0, 0]","[0, 0]","[1, 1]","[0.0007151000027079135, 2.4502188000187743]","[None, 'target']",146,0,146,0,416.47846380001283,,5,416.4691371000081,416.47846380001283,416.47846380001283,0.01554059999762103,418.9194176000019,"[np.float64(-0.2851851851851852), np.float64(0.41574074074074074)]","[np.float64(-0.31574074074074077), np.float64(-0.1814814814814815)]","[0, 0]","[0, 0]","[1, 1]","[0.0007151000027079135, 2.4502188000187743]","[None, 'target']",002,001,2025-09-30_19h47.00.454,Visual Search,,2025.1.1,60.02469416553057,2025-09-30 19h47.12.858348 +0530,
147,0,147,[np.float64(0.29444444444444445)],[np.float64(-0.02962962962962963)],[0],[0],[1],[2.730478400015272],['target'],147,0,147,0,418.97397380002076,,10,418.95806530001573,418.97397380002076,418.97397380002076,0.03850240001338534,421.688830900006,[np.float64(0.29444444444444445)],[np.float64(-0.02962962962962963)],[0],[0],[1],[2.730478400015272],['target'],002,001,2025-09-30_19h47.00.454,Visual Search,,2025.1.1,60.02469416553057,2025-09-30 19h47.12.858348 +0530,
148,0,148,"[np.float64(0.29444444444444445), np.float64(-0.1787037037037037)]","[np.float64(-0.02962962962962963), np.float64(-0.4703703703703704)]","[0, 0]","[0, 0]","[1, 1]","[0.0007869999972172081, 2.6041872999921907]","[None, 'target']",148,0,148,0,421.7458136000205,,10,421.73154750000685,421.7458136000205,421.7458136000205,0.04182910002418794,424.33594720001565,"[np.float64(0.29444444444444445), np.float64(-0.1787037037037037)]","[np.float64(-0.02962962962962963), np.float64(-0.4703703703703704)]","[0, 0]","[0, 0]","[1, 1]","[0.0007869999972172081, 2.6041872999921907]","[None, 'target']",002,001,2025-09-30_19h47.00.454,Visual Search,,2025.1.1,60.02469416553057,2025-09-30 19h47.12.858348 +0530,
149,0,149,"[np.float64(-0.1787037037037037), np.float64(-0.3055555555555556)]","[np.float64(-0.4703703703703704), np.float64(-0.17777777777777778)]","[0, 0]","[0, 0]","[1, 1]","[0.0006810000049881637, 1.928517099993769]","[None, 'target']",149,0,149,0,424.3894685000123,,10,424.3748220000125,424.3894685000123,424.3894685000123,0.03823379997629672,426.30341210000915,"[np.float64(-0.1787037037037037), np.float64(-0.3055555555555556)]","[np.float64(-0.4703703703703704), np.float64(-0.17777777777777778)]","[0, 0]","[0, 0]","[1, 1]","[0.0006810000049881637, 1.928517099993769]","[None, 'target']",002,001,2025-09-30_19h47.00.454,Visual Search,,2025.1.1,60.02469416553057,2025-09-30 19h47.12.858348 +0530,
150,0,150,"[np.float64(-0.3055555555555556), np.float64(-0.2037037037037037)]","[np.float64(-0.17777777777777778), np.float64(-0.1037037037037037)]","[0, 0]","[0, 0]","[1, 1]","[0.0007879000040702522, 1.369714100001147]","[None, 'target']",150,0,150,0,426.33081250000396,,5,426.3205523000215,426.33081250000396,426.33081250000396,0.01680579999811016,427.69068010000046,"[np.float64(-0.3055555555555556), np.float64(-0.2037037037037037)]","[np.float64(-0.17777777777777778), np.float64(-0.1037037037037037)]","[0, 0]","[0, 0]","[1, 1]","[0.0007879000040702522, 1.369714100001147]","[None, 'target']",002,001,2025-09-30_19h47.00.454,Visual Search,,2025.1.1,60.02469416553057,2025-09-30 19h47.12.858348 +0530,
151,0,151,"[np.float64(-0.2037037037037037), np.float64(0.3638888888888889)]","[np.float64(-0.1037037037037037), np.float64(0.5)]","[0, 0]","[0, 0]","[1, 1]","[0.0005787000118289143, 4.26632470000186]","[None, 'target']",151,0,151,0,427.7664804000233,,10,427.75209920000634,427.7664804000233,427.7664804000233,0.0602933999907691,432.0185111000028,"[np.float64(-0.2037037037037037), np.float64(0.3638888888888889)]","[np.float64(-0.1037037037037037), np.float64(0.5)]","[0, 0]","[0, 0]","[1, 1]","[0.0005787000118289143, 4.26632470000186]","[None, 'target']",002,001,2025-09-30_19h47.00.454,Visual Search,,2025.1.1,60.02469416553057,2025-09-30 19h47.12.858348 +0530,
152,0,152,"[np.float64(0.3638888888888889), np.float64(0.4425925925925926)]","[np.float64(0.5), np.float64(-0.3962962962962963)]","[0, 0]","[0, 0]","[1, 1]","[0.0007106999983079731, 3.144053999974858]","[None, 'target']",152,0,152,0,432.0732372000057,,10,432.05792770002154,432.0732372000057,432.0732372000057,0.03920729999663308,435.20206560002407,"[np.float64(0.3638888888888889), np.float64(0.4425925925925926)]","[np.float64(0.5), np.float64(-0.3962962962962963)]","[0, 0]","[0, 0]","[1, 1]","[0.0007106999983079731, 3.144053999974858]","[None, 'target']",002,001,2025-09-30_19h47.00.454,Visual Search,,2025.1.1,60.02469416553057,2025-09-30 19h47.12.858348 +0530,
153,0,153,"[np.float64(0.44166666666666665), np.float64(-0.05277777777777778), np.float64(-0.027777777777777776)]","[np.float64(-0.3962962962962963), np.float64(0.022222222222222223), np.float64(0.020370370370370372)]","[0, 0, 0]","[0, 0, 0]","[1, 1, 1]","[0.0007566000276710838, 4.062490800017258, 5.145586600003298]","[None, None, 'target']",153,0,153,0,435.2545640000026,,10,435.2384942000208,435.2545640000026,435.2545640000026,0.036133899993728846,440.3841481000127,"[np.float64(0.44166666666666665), np.float64(-0.05277777777777778), np.float64(-0.027777777777777776)]","[np.float64(-0.3962962962962963), np.float64(0.022222222222222223), np.float64(0.020370370370370372)]","[0, 0, 0]","[0, 0, 0]","[1, 1, 1]","[0.0007566000276710838, 4.062490800017258, 5.145586600003298]","[None, None, 'target']",002,001,2025-09-30_19h47.00.454,Visual Search,,2025.1.1,60.02469416553057,2025-09-30 19h47.12.858348 +0530,
154,0,154,"[np.float64(-0.027777777777777776), np.float64(-0.09722222222222222)]","[np.float64(0.020370370370370372), np.float64(0.35185185185185186)]","[0, 0]","[0, 0]","[1, 1]","[0.0009045000188052654, 2.135823699994944]","[None, 'target']",154,0,154,0,440.4101355000166,,5,440.4003604000027,440.4101355000166,440.4101355000166,0.01601300001493655,442.5365995000175,"[np.float64(-0.027777777777777776), np.float64(-0.09722222222222222)]","[np.float64(0.020370370370370372), np.float64(0.35185185185185186)]","[0, 0]","[0, 0]","[1, 1]","[0.0009045000188052654, 2.135823699994944]","[None, 'target']",002,001,2025-09-30_19h47.00.454,Visual Search,,2025.1.1,60.02469416553057,2025-09-30 19h47.12.858348 +0530,
155,0,155,[np.float64(-0.4287037037037037)],[np.float64(-0.44537037037037036)],[0],[0],[1],[3.515461499977391],['target'],155,0,155,0,442.6179250999994,,10,442.60178280001855,442.6179250999994,442.6179250999994,0.06409410000196658,446.1173551000247,[np.float64(-0.4287037037037037)],[np.float64(-0.44537037037037036)],[0],[0],[1],[3.515461499977391],['target'],002,001,2025-09-30_19h47.00.454,Visual Search,,2025.1.1,60.02469416553057,2025-09-30 19h47.12.858348 +0530,
156,0,156,"[np.float64(-0.4287037037037037), np.float64(0.3638888888888889)]","[np.float64(-0.44537037037037036), np.float64(0.30277777777777776)]","[0, 0]","[0, 0]","[1, 1]","[0.0007622999837622046, 2.5804013999877498]","[None, 'target']",156,0,156,0,446.1708106000151,,10,446.1537020000105,446.1708106000151,446.1708106000151,0.036160699994070455,448.73422220000066,"[np.float64(-0.4287037037037037), np.float64(0.3638888888888889)]","[np.float64(-0.44537037037037036), np.float64(0.30277777777777776)]","[0, 0]","[0, 0]","[1, 1]","[0.0007622999837622046, 2.5804013999877498]","[None, 'target']",002,001,2025-09-30_19h47.00.454,Visual Search,,2025.1.1,60.02469416553057,2025-09-30 19h47.12.858348 +0530,
157,0,157,"[np.float64(0.3638888888888889), np.float64(0.020370370370370372)]","[np.float64(0.30277777777777776), np.float64(0.22685185185185186)]","[0, 0]","[0, 0]","[1, 1]","[0.000624299980700016, 2.1787668999750167]","[None, 'target']",157,0,157,0,448.76595030000317,,5,448.7558925000194,448.76595030000317,448.76595030000317,0.02132629998959601,450.93496949999826,"[np.float64(0.3638888888888889), np.float64(0.020370370370370372)]","[np.float64(0.30277777777777776), np.float64(0.22685185185185186)]","[0, 0]","[0, 0]","[1, 1]","[0.000624299980700016, 2.1787668999750167]","[None, 'target']",002,001,2025-09-30_19h47.00.454,Visual Search,,2025.1.1,60.02469416553057,2025-09-30 19h47.12.858348 +0530,
158,0,158,"[np.float64(0.020370370370370372), np.float64(-0.1259259259259259)]","[np.float64(0.22685185185185186), np.float64(0.34814814814814815)]","[0, 0]","[0, 0]","[1, 1]","[0.000599599996348843, 1.9622624999901745]","[None, 'target']",158,0,158,0,451.0049065000203,,10,450.9886419000104,451.0049065000203,451.0049065000203,0.053080799989402294,452.9511437000183,"[np.float64(0.020370370370370372), np.float64(-0.1259259259259259)]","[np.float64(0.22685185185185186), np.float64(0.34814814814814815)]","[0, 0]","[0, 0]","[1, 1]","[0.000599599996348843, 1.9622624999901745]","[None, 'target']",002,001,2025-09-30_19h47.00.454,Visual Search,,2025.1.1,60.02469416553057,2025-09-30 19h47.12.858348 +0530,
159,0,159,"[np.float64(-0.1259259259259259), np.float64(0.30185185185185187)]","[np.float64(0.34814814814814815), np.float64(-0.38796296296296295)]","[0, 0]","[0, 0]","[1, 1]","[0.0006265999982133508, 2.687612399982754]","[None, 'target']",159,0,159,0,453.0100430000166,,10,452.99498780001886,453.0100430000166,453.0100430000166,0.04319349999423139,455.68271710001864,"[np.float64(-0.1259259259259259), np.float64(0.30185185185185187)]","[np.float64(0.34814814814814815), np.float64(-0.38796296296296295)]","[0, 0]","[0, 0]","[1, 1]","[0.0006265999982133508, 2.687612399982754]","[None, 'target']",002,001,2025-09-30_19h47.00.454,Visual Search,,2025.1.1,60.02469416553057,2025-09-30 19h47.12.858348 +0530,
160,0,160,"[np.float64(0.30185185185185187), np.float64(-0.4444444444444444)]","[np.float64(-0.38796296296296295), np.float64(0.08148148148148149)]","[0, 0]","[0, 0]","[1, 1]","[0.0007318999851122499, 2.7260255999863148]","[None, 'target']",160,0,160,0,455.7169356000086,,5,455.7076043999987,455.7169356000086,455.7169356000086,0.02449069998692721,458.43383809999796,"[np.float64(0.30185185185185187), np.float64(-0.4444444444444444)]","[np.float64(-0.38796296296296295), np.float64(0.08148148148148149)]","[0, 0]","[0, 0]","[1, 1]","[0.0007318999851122499, 2.7260255999863148]","[None, 'target']",002,001,2025-09-30_19h47.00.454,Visual Search,,2025.1.1,60.02469416553057,2025-09-30 19h47.12.858348 +0530,
161,0,161,"[np.float64(-0.4444444444444444), np.float64(-0.4148148148148148)]","[np.float64(0.08148148148148149), np.float64(0.34444444444444444)]","[0, 0]","[0, 0]","[1, 1]","[0.0008070000039879233, 2.90756700001657]","[None, 'target']",161,0,161,0,458.50771150001674,,10,458.49309600002016,458.50771150001674,458.50771150001674,0.058777700003702193,461.4009101999982,"[np.float64(-0.4444444444444444), np.float64(-0.4148148148148148)]","[np.float64(0.08148148148148149), np.float64(0.34444444444444444)]","[0, 0]","[0, 0]","[1, 1]","[0.0008070000039879233, 2.90756700001657]","[None, 'target']",002,001,2025-09-30_19h47.00.454,Visual Search,,2025.1.1,60.02469416553057,2025-09-30 19h47.12.858348 +0530,
162,0,162,"[np.float64(-0.4148148148148148), np.float64(-0.026851851851851852)]","[np.float64(0.34444444444444444), np.float64(0.19444444444444445)]","[0, 0]","[0, 0]","[1, 1]","[0.0014187999768182635, 2.417865299998084]","[None, 'target']",162,0,162,0,461.4434722000151,,5,461.43245469999965,461.4434722000151,461.4434722000151,0.030642099998658523,463.850503499998,"[np.float64(-0.4148148148148148), np.float64(-0.026851851851851852)]","[np.float64(0.34444444444444444), np.float64(0.19444444444444445)]","[0, 0]","[0, 0]","[1, 1]","[0.0014187999768182635, 2.417865299998084]","[None, 'target']",002,001,2025-09-30_19h47.00.454,Visual Search,,2025.1.1,60.02469416553057,2025-09-30 19h47.12.858348 +0530,
163,0,163,"[np.float64(-0.026851851851851852), np.float64(0.24814814814814815)]","[np.float64(0.19444444444444445), np.float64(0.08425925925925926)]","[0, 0]","[0, 0]","[1, 1]","[0.0010700999991968274, 2.64101279998431]","[None, 'target']",163,0,163,0,463.940155600023,,10,463.9240023000166,463.940155600023,463.940155600023,0.07295760000124574,466.5650979000202,"[np.float64(-0.026851851851851852), np.float64(0.24814814814814815)]","[np.float64(0.19444444444444445), np.float64(0.08425925925925926)]","[0, 0]","[0, 0]","[1, 1]","[0.0010700999991968274, 2.64101279998431]","[None, 'target']",002,001,2025-09-30_19h47.00.454,Visual Search,,2025.1.1,60.02469416553057,2025-09-30 19h47.12.858348 +0530,
