thisN,thisTrialN,thisRepN,mouse.x,mouse.y,mouse.leftButton,mouse.midButton,mouse.rightButton,mouse.time,mouse.clicked_name,trials.thisRepN,trials.thisTrialN,trials.thisN,trials.thisIndex,thisRow.t,notes,num_distr,trial.started,Fixation.started,target.started,mouse.started,trial.stopped,trials.mouse.x,trials.mouse.y,trials.mouse.leftButton,trials.mouse.midButton,trials.mouse.rightButton,trials.mouse.time,trials.mouse.clicked_name,participant,session,date,expName,expVersion,psychopyVersion,frameRate,expStart,
0,0,0,[np.float64(-0.39351851851851855)],[np.float64(0.019444444444444445)],[0],[0],[1],[5.085575500008417],['target'],0,0,0,0,0.0640760000096634,,10,0.04208370001288131,0.0640760000096634,0.0640760000096634,0.04211320000467822,5.127782100025797,[np.float64(-0.39351851851851855)],[np.float64(0.019444444444444445)],[0],[0],[1],[5.085575500008417],['target'],003,001,2025-09-30_20h21.25.668,Visual Search,,2025.1.1,59.81022216826589,2025-09-30 20h21.34.620850 +0530,
1,0,1,"[np.float64(-0.39351851851851855), np.float64(-0.049074074074074076)]","[np.float64(0.019444444444444445), np.float64(0.3314814814814815)]","[0, 0]","[0, 0]","[1, 1]","[0.0015493000100832433, 2.3659370000241324]","[None, 'target']",1,0,1,0,5.1702481000102125,,5,5.160096700012218,5.1702481000102125,5.1702481000102125,0.03189139999449253,7.526139900000999,"[np.float64(-0.39351851851851855), np.float64(-0.049074074074074076)]","[np.float64(0.019444444444444445), np.float64(0.3314814814814815)]","[0, 0]","[0, 0]","[1, 1]","[0.0015493000100832433, 2.3659370000241324]","[None, 'target']",003,001,2025-09-30_20h21.25.668,Visual Search,,2025.1.1,59.81022216826589,2025-09-30 20h21.34.620850 +0530,
2,0,2,"[np.float64(-0.049074074074074076), np.float64(0.18888888888888888)]","[np.float64(0.3314814814814815), np.float64(-0.021296296296296296)]","[0, 0]","[0, 0]","[1, 1]","[0.0006350000039674342, 2.262915300001623]","[None, 'target']",2,0,2,0,7.598395500011975,,10,7.581526100024348,7.598395500011975,7.598395500011975,0.05488029998377897,9.844823699997505,"[np.float64(-0.049074074074074076), np.float64(0.18888888888888888)]","[np.float64(0.3314814814814815), np.float64(-0.021296296296296296)]","[0, 0]","[0, 0]","[1, 1]","[0.0006350000039674342, 2.262915300001623]","[None, 'target']",003,001,2025-09-30_20h21.25.668,Visual Search,,2025.1.1,59.81022216826589,2025-09-30 20h21.34.620850 +0530,
3,0,3,"[np.float64(0.18888888888888888), np.float64(-0.020370370370370372)]","[np.float64(-0.021296296296296296), np.float64(0.17592592592592593)]","[0, 0]","[0, 0]","[1, 1]","[0.0006577000021934509, 1.561721000005491]","[None, 'target']",3,0,3,0,9.913063100015279,,10,9.900416000018595,9.913063100015279,9.913063100015279,0.05415839998750016,11.462279200000921,"[np.float64(0.18888888888888888), np.float64(-0.020370370370370372)]","[np.float64(-0.021296296296296296), np.float64(0.17592592592592593)]","[0, 0]","[0, 0]","[1, 1]","[0.0006577000021934509, 1.561721000005491]","[None, 'target']",003,001,2025-09-30_20h21.25.668,Visual Search,,2025.1.1,59.81022216826589,2025-09-30 20h21.34.620850 +0530,
4,0,4,"[np.float64(-0.020370370370370372), np.float64(0.1259259259259259)]","[np.float64(0.17592592592592593), np.float64(-0.44537037037037036)]","[0, 0]","[0, 0]","[1, 1]","[0.0006334999925456941, 2.540908800001489]","[None, 'target']",4,0,4,0,11.514143500011414,,10,11.500950900022872,11.514143500011414,11.514143500011414,0.03823890001513064,14.041977300017606,"[np.float64(-0.020370370370370372), np.float64(0.1259259259259259)]","[np.float64(0.17592592592592593), np.float64(-0.44537037037037036)]","[0, 0]","[0, 0]","[1, 1]","[0.0006334999925456941, 2.540908800001489]","[None, 'target']",003,001,2025-09-30_20h21.25.668,Visual Search,,2025.1.1,59.81022216826589,2025-09-30 20h21.34.620850 +0530,
5,0,5,"[np.float64(0.1259259259259259), np.float64(0.14537037037037037)]","[np.float64(-0.44537037037037036), np.float64(-0.2064814814814815)]","[0, 0]","[0, 0]","[1, 1]","[0.0006744000129401684, 1.5420478000014555]","[None, 'target']",5,0,5,0,14.099198300013086,,10,14.084210600005463,14.099198300013086,14.099198300013086,0.041808799986029044,15.626481100014644,"[np.float64(0.1259259259259259), np.float64(0.14537037037037037)]","[np.float64(-0.44537037037037036), np.float64(-0.2064814814814815)]","[0, 0]","[0, 0]","[1, 1]","[0.0006744000129401684, 1.5420478000014555]","[None, 'target']",003,001,2025-09-30_20h21.25.668,Visual Search,,2025.1.1,59.81022216826589,2025-09-30 20h21.34.620850 +0530,
6,0,6,"[np.float64(0.14537037037037037), np.float64(-0.21666666666666667)]","[np.float64(-0.2064814814814815), np.float64(-0.4685185185185185)]","[0, 0]","[0, 0]","[1, 1]","[0.000911599985556677, 1.835559499973897]","[None, 'target']",6,0,6,0,15.666691000020364,,5,15.65639300001203,15.666691000020364,15.666691000020364,0.029245999990962446,17.49208140000701,"[np.float64(0.14537037037037037), np.float64(-0.21666666666666667)]","[np.float64(-0.2064814814814815), np.float64(-0.4685185185185185)]","[0, 0]","[0, 0]","[1, 1]","[0.000911599985556677, 1.835559499973897]","[None, 'target']",003,001,2025-09-30_20h21.25.668,Visual Search,,2025.1.1,59.81022216826589,2025-09-30 20h21.34.620850 +0530,
7,0,7,"[np.float64(-0.21666666666666667), np.float64(-0.12407407407407407)]","[np.float64(-0.4685185185185185), np.float64(0.46944444444444444)]","[0, 0]","[0, 0]","[1, 1]","[0.0005679999885614961, 1.9727748000004794]","[None, 'target']",7,0,7,0,17.552353500010213,,10,17.53568970001652,17.552353500010213,17.552353500010213,0.043263500003376976,19.50853350001853,"[np.float64(-0.21666666666666667), np.float64(-0.12407407407407407)]","[np.float64(-0.4685185185185185), np.float64(0.46944444444444444)]","[0, 0]","[0, 0]","[1, 1]","[0.0005679999885614961, 1.9727748000004794]","[None, 'target']",003,001,2025-09-30_20h21.25.668,Visual Search,,2025.1.1,59.81022216826589,2025-09-30 20h21.34.620850 +0530,
8,0,8,"[np.float64(-0.12407407407407407), np.float64(0.11018518518518519)]","[np.float64(0.46944444444444444), np.float64(0.3824074074074074)]","[0, 0]","[0, 0]","[1, 1]","[0.000828499993076548, 1.6508340000000317]","[None, 'target']",8,0,8,0,19.53618570000981,,5,19.526099400012754,19.53618570000981,19.53618570000981,0.017370899993693456,21.177335100015625,"[np.float64(-0.12407407407407407), np.float64(0.11018518518518519)]","[np.float64(0.46944444444444444), np.float64(0.3824074074074074)]","[0, 0]","[0, 0]","[1, 1]","[0.000828499993076548, 1.6508340000000317]","[None, 'target']",003,001,2025-09-30_20h21.25.668,Visual Search,,2025.1.1,59.81022216826589,2025-09-30 20h21.34.620850 +0530,
9,0,9,"[np.float64(0.11018518518518519), np.float64(0.325)]","[np.float64(0.3824074074074074), np.float64(-0.10277777777777777)]","[0, 0]","[0, 0]","[1, 1]","[0.0007830999966245145, 1.7228809999942314]","[None, 'target']",9,0,9,0,21.2310276000062,,5,21.218750500003807,21.2310276000062,21.2310276000062,0.040247900004033,22.941750700003468,"[np.float64(0.11018518518518519), np.float64(0.325)]","[np.float64(0.3824074074074074), np.float64(-0.10277777777777777)]","[0, 0]","[0, 0]","[1, 1]","[0.0007830999966245145, 1.7228809999942314]","[None, 'target']",003,001,2025-09-30_20h21.25.668,Visual Search,,2025.1.1,59.81022216826589,2025-09-30 20h21.34.620850 +0530,
10,0,10,"[np.float64(0.325), np.float64(-0.08425925925925926)]","[np.float64(-0.10277777777777777), np.float64(-0.43703703703703706)]","[0, 0]","[0, 0]","[1, 1]","[0.0009327000007033348, 1.877560299995821]","[None, 'target']",10,0,10,0,23.01505410001846,,10,22.99663900001906,23.01505410001846,23.01505410001846,0.054396200022893026,24.874280400021235,"[np.float64(0.325), np.float64(-0.08425925925925926)]","[np.float64(-0.10277777777777777), np.float64(-0.43703703703703706)]","[0, 0]","[0, 0]","[1, 1]","[0.0009327000007033348, 1.877560299995821]","[None, 'target']",003,001,2025-09-30_20h21.25.668,Visual Search,,2025.1.1,59.81022216826589,2025-09-30 20h21.34.620850 +0530,
11,0,11,"[np.float64(-0.08425925925925926), np.float64(0.007407407407407408)]","[np.float64(-0.43703703703703706), np.float64(-0.45925925925925926)]","[0, 0]","[0, 0]","[1, 1]","[0.0007135999912861735, 1.162057100009406]","[None, 'target']",11,0,11,0,24.907508800009964,,5,24.896495799999684,24.907508800009964,24.907508800009964,0.021987600019201636,26.05874850001419,"[np.float64(-0.08425925925925926), np.float64(0.007407407407407408)]","[np.float64(-0.43703703703703706), np.float64(-0.45925925925925926)]","[0, 0]","[0, 0]","[1, 1]","[0.0007135999912861735, 1.162057100009406]","[None, 'target']",003,001,2025-09-30_20h21.25.668,Visual Search,,2025.1.1,59.81022216826589,2025-09-30 20h21.34.620850 +0530,
12,0,12,"[np.float64(0.007407407407407408), np.float64(0.25833333333333336)]","[np.float64(-0.45925925925925926), np.float64(0.47314814814814815)]","[0, 0]","[0, 0]","[1, 1]","[0.0006666999834123999, 1.761812699987786]","[None, 'target']",12,0,12,0,26.10454570001457,,5,26.095148000022164,26.10454570001457,26.10454570001457,0.03593660000478849,27.857042000017827,"[np.float64(0.007407407407407408), np.float64(0.25833333333333336)]","[np.float64(-0.45925925925925926), np.float64(0.47314814814814815)]","[0, 0]","[0, 0]","[1, 1]","[0.0006666999834123999, 1.761812699987786]","[None, 'target']",003,001,2025-09-30_20h21.25.668,Visual Search,,2025.1.1,59.81022216826589,2025-09-30 20h21.34.620850 +0530,
13,0,13,"[np.float64(0.25833333333333336), np.float64(0.2564814814814815)]","[np.float64(0.47314814814814815), np.float64(0.3675925925925926)]","[0, 0]","[0, 0]","[1, 1]","[0.0010430999973323196, 1.3437145999923814]","[None, 'target']",13,0,13,0,27.893418899999233,,5,27.88024170001154,27.893418899999233,27.893418899999233,0.023014400008833036,29.22409920001519,"[np.float64(0.25833333333333336), np.float64(0.2564814814814815)]","[np.float64(0.47314814814814815), np.float64(0.3675925925925926)]","[0, 0]","[0, 0]","[1, 1]","[0.0010430999973323196, 1.3437145999923814]","[None, 'target']",003,001,2025-09-30_20h21.25.668,Visual Search,,2025.1.1,59.81022216826589,2025-09-30 20h21.34.620850 +0530,
14,0,14,"[np.float64(0.2564814814814815), np.float64(-0.3611111111111111)]","[np.float64(0.3675925925925926), np.float64(-0.4305555555555556)]","[0, 0]","[0, 0]","[1, 1]","[0.0005537000251933932, 1.7291249000118114]","[None, 'target']",14,0,14,0,29.298601300019072,,10,29.28012090001721,29.298601300019072,29.298601300019072,0.05555869999807328,31.009300500008976,"[np.float64(0.2564814814814815), np.float64(-0.3611111111111111)]","[np.float64(0.3675925925925926), np.float64(-0.4305555555555556)]","[0, 0]","[0, 0]","[1, 1]","[0.0005537000251933932, 1.7291249000118114]","[None, 'target']",003,001,2025-09-30_20h21.25.668,Visual Search,,2025.1.1,59.81022216826589,2025-09-30 20h21.34.620850 +0530,
15,0,15,"[np.float64(-0.3611111111111111), np.float64(0.375), np.float64(0.3824074074074074)]","[np.float64(-0.4305555555555556), np.float64(-0.27037037037037037), np.float64(-0.28055555555555556)]","[0, 0, 0]","[0, 0, 0]","[1, 1, 1]","[0.001201900013256818, 2.9193172000232153, 4.749665300012566]","[None, None, 'target']",15,0,15,0,31.036267300019972,,5,31.024598600022728,31.036267300019972,31.036267300019972,0.015155500004766509,35.77441510002245,"[np.float64(-0.3611111111111111), np.float64(0.375), np.float64(0.3824074074074074)]","[np.float64(-0.4305555555555556), np.float64(-0.27037037037037037), np.float64(-0.28055555555555556)]","[0, 0, 0]","[0, 0, 0]","[1, 1, 1]","[0.001201900013256818, 2.9193172000232153, 4.749665300012566]","[None, None, 'target']",003,001,2025-09-30_20h21.25.668,Visual Search,,2025.1.1,59.81022216826589,2025-09-30 20h21.34.620850 +0530,
16,0,16,[np.float64(0.007407407407407408)],[np.float64(0.4287037037037037)],[0],[0],[1],[1.481346599990502],['target'],16,0,16,0,35.826315200014506,,10,35.81105870002648,35.826315200014506,35.826315200014506,0.03616170000168495,37.292520500021055,[np.float64(0.007407407407407408)],[np.float64(0.4287037037037037)],[0],[0],[1],[1.481346599990502],['target'],003,001,2025-09-30_20h21.25.668,Visual Search,,2025.1.1,59.81022216826589,2025-09-30 20h21.34.620850 +0530,
17,0,17,"[np.float64(0.007407407407407408), np.float64(-0.1398148148148148)]","[np.float64(0.4287037037037037), np.float64(-0.06666666666666667)]","[0, 0]","[0, 0]","[1, 1]","[0.0008654000121168792, 1.8690112000040244]","[None, 'target']",17,0,17,0,37.3327751000179,,5,37.32248920001439,37.3327751000179,37.3327751000179,0.0296647000068333,39.191717800014885,"[np.float64(0.007407407407407408), np.float64(-0.1398148148148148)]","[np.float64(0.4287037037037037), np.float64(-0.06666666666666667)]","[0, 0]","[0, 0]","[1, 1]","[0.0008654000121168792, 1.8690112000040244]","[None, 'target']",003,001,2025-09-30_20h21.25.668,Visual Search,,2025.1.1,59.81022216826589,2025-09-30 20h21.34.620850 +0530,
18,0,18,[np.float64(0.07777777777777778)],[np.float64(0.30185185185185187)],[0],[0],[1],[1.5107696000195574],['target'],18,0,18,0,39.241523100005,,5,39.230275600013556,39.241523100005,39.241523100005,0.0380355000088457,40.741186500003096,[np.float64(0.07777777777777778)],[np.float64(0.30185185185185187)],[0],[0],[1],[1.5107696000195574],['target'],003,001,2025-09-30_20h21.25.668,Visual Search,,2025.1.1,59.81022216826589,2025-09-30 20h21.34.620850 +0530,
19,0,19,[np.float64(-0.3175925925925926)],[np.float64(-0.10925925925925926)],[0],[0],[1],[1.6727428000012878],['target'],19,0,19,0,40.80006110001705,,10,40.783411700016586,40.80006110001705,40.80006110001705,0.041872200003126636,42.456219700019574,[np.float64(-0.3175925925925926)],[np.float64(-0.10925925925925926)],[0],[0],[1],[1.6727428000012878],['target'],003,001,2025-09-30_20h21.25.668,Visual Search,,2025.1.1,59.81022216826589,2025-09-30 20h21.34.620850 +0530,
20,0,20,"[np.float64(-0.3175925925925926), np.float64(-0.38055555555555554)]","[np.float64(-0.10925925925925926), np.float64(0.38425925925925924)]","[0, 0]","[0, 0]","[1, 1]","[0.0007357999857049435, 1.9175473999930546]","[None, 'target']",20,0,20,0,42.48326200002339,,5,42.473462100024335,42.48326200002339,42.48326200002339,0.017071400012355298,44.39122070002486,"[np.float64(-0.3175925925925926), np.float64(-0.38055555555555554)]","[np.float64(-0.10925925925925926), np.float64(0.38425925925925924)]","[0, 0]","[0, 0]","[1, 1]","[0.0007357999857049435, 1.9175473999930546]","[None, 'target']",003,001,2025-09-30_20h21.25.668,Visual Search,,2025.1.1,59.81022216826589,2025-09-30 20h21.34.620850 +0530,
21,0,21,[np.float64(0.36666666666666664)],[np.float64(0.2518518518518518)],[0],[0],[1],[1.8455992999952286],['target'],21,0,21,0,44.47625970002264,,10,44.46043700000155,44.47625970002264,44.47625970002264,0.06850829999893904,46.30612560000736,[np.float64(0.36666666666666664)],[np.float64(0.2518518518518518)],[0],[0],[1],[1.8455992999952286],['target'],003,001,2025-09-30_20h21.25.668,Visual Search,,2025.1.1,59.81022216826589,2025-09-30 20h21.34.620850 +0530,
22,0,22,"[np.float64(0.36666666666666664), np.float64(-0.44537037037037036)]","[np.float64(0.2518518518518518), np.float64(-0.19722222222222222)]","[0, 0]","[0, 0]","[1, 1]","[0.0006477000133600086, 2.229071500012651]","[None, 'target']",22,0,22,0,46.336756200005766,,5,46.32571360000293,46.336756200005766,46.336756200005766,0.019240499997977167,48.554855100024724,"[np.float64(0.36666666666666664), np.float64(-0.44537037037037036)]","[np.float64(0.2518518518518518), np.float64(-0.19722222222222222)]","[0, 0]","[0, 0]","[1, 1]","[0.0006477000133600086, 2.229071500012651]","[None, 'target']",003,001,2025-09-30_20h21.25.668,Visual Search,,2025.1.1,59.81022216826589,2025-09-30 20h21.34.620850 +0530,
23,0,23,"[np.float64(-0.44537037037037036), np.float64(-0.33055555555555555)]","[np.float64(-0.19722222222222222), np.float64(0.45185185185185184)]","[0, 0]","[0, 0]","[1, 1]","[0.0006260999944061041, 1.738312000001315]","[None, 'target']",23,0,23,0,48.60150590000558,,10,48.58664230001159,48.60150590000558,48.60150590000558,0.03160539999953471,50.3253040999989,"[np.float64(-0.44537037037037036), np.float64(-0.33055555555555555)]","[np.float64(-0.19722222222222222), np.float64(0.45185185185185184)]","[0, 0]","[0, 0]","[1, 1]","[0.0006260999944061041, 1.738312000001315]","[None, 'target']",003,001,2025-09-30_20h21.25.668,Visual Search,,2025.1.1,59.81022216826589,2025-09-30 20h21.34.620850 +0530,
24,0,24,"[np.float64(-0.33055555555555555), np.float64(0.21944444444444444), np.float64(0.25277777777777777)]","[np.float64(0.45185185185185184), np.float64(0.3453703703703704), np.float64(0.325)]","[0, 0, 0]","[0, 0, 0]","[1, 1, 1]","[0.0013491999998223037, 2.056698000000324, 3.4745914999803063]","[None, None, 'target']",24,0,24,0,50.37861160002649,,5,50.36562640001648,50.37861160002649,50.37861160002649,0.03951459997915663,53.84042310001678,"[np.float64(-0.33055555555555555), np.float64(0.21944444444444444), np.float64(0.25277777777777777)]","[np.float64(0.45185185185185184), np.float64(0.3453703703703704), np.float64(0.325)]","[0, 0, 0]","[0, 0, 0]","[1, 1, 1]","[0.0013491999998223037, 2.056698000000324, 3.4745914999803063]","[None, None, 'target']",003,001,2025-09-30_20h21.25.668,Visual Search,,2025.1.1,59.81022216826589,2025-09-30 20h21.34.620850 +0530,
25,0,25,[np.float64(-0.0787037037037037)],[np.float64(-0.075)],[0],[0],[1],[2.1150281000009272],['target'],25,0,25,0,53.9073007000261,,10,53.89064060000237,53.9073007000261,53.9073007000261,0.04945910000242293,56.00590460002422,[np.float64(-0.0787037037037037)],[np.float64(-0.075)],[0],[0],[1],[2.1150281000009272],['target'],003,001,2025-09-30_20h21.25.668,Visual Search,,2025.1.1,59.81022216826589,2025-09-30 20h21.34.620850 +0530,
26,0,26,[np.float64(-0.1675925925925926)],[np.float64(0.20555555555555555)],[0],[0],[1],[1.3357747000118252],['target'],26,0,26,0,56.048800700024,,5,56.03866790002212,56.048800700024,56.048800700024,0.032053800008725375,57.37484550001682,[np.float64(-0.1675925925925926)],[np.float64(0.20555555555555555)],[0],[0],[1],[1.3357747000118252],['target'],003,001,2025-09-30_20h21.25.668,Visual Search,,2025.1.1,59.81022216826589,2025-09-30 20h21.34.620850 +0530,
27,0,27,[np.float64(0.23333333333333334)],[np.float64(-0.1111111111111111)],[0],[0],[1],[1.537654499989003],['target'],27,0,27,0,57.412410400022054,,5,57.40303370001493,57.412410400022054,57.412410400022054,0.027250500017544255,58.940916500025196,[np.float64(0.23333333333333334)],[np.float64(-0.1111111111111111)],[0],[0],[1],[1.537654499989003],['target'],003,001,2025-09-30_20h21.25.668,Visual Search,,2025.1.1,59.81022216826589,2025-09-30 20h21.34.620850 +0530,
28,0,28,[np.float64(-0.4462962962962963)],[np.float64(0.04259259259259259)],[0],[0],[1],[1.6036722999997437],['target'],28,0,28,0,59.000730500003556,,10,58.98564610001631,59.000730500003556,59.000730500003556,0.04412820001016371,60.58941810001852,[np.float64(-0.4462962962962963)],[np.float64(0.04259259259259259)],[0],[0],[1],[1.6036722999997437],['target'],003,001,2025-09-30_20h21.25.668,Visual Search,,2025.1.1,59.81022216826589,2025-09-30 20h21.34.620850 +0530,
29,0,29,[np.float64(-0.3416666666666667)],[np.float64(-0.13518518518518519)],[0],[0],[1],[1.8156696000078227],['target'],29,0,29,0,60.61735340001178,,5,60.60718590000761,60.61735340001178,60.61735340001178,0.017588799993973225,62.423110900010215,[np.float64(-0.3416666666666667)],[np.float64(-0.13518518518518519)],[0],[0],[1],[1.8156696000078227],['target'],003,001,2025-09-30_20h21.25.668,Visual Search,,2025.1.1,59.81022216826589,2025-09-30 20h21.34.620850 +0530,
30,0,30,[np.float64(-0.2916666666666667)],[np.float64(0.03425925925925926)],[0],[0],[1],[0.9541861999896355],['target'],30,0,30,0,62.482228600012604,,10,62.46705490001477,62.482228600012604,62.482228600012604,0.043305200000759214,63.42148210000596,[np.float64(-0.2916666666666667)],[np.float64(0.03425925925925926)],[0],[0],[1],[0.9541861999896355],['target'],003,001,2025-09-30_20h21.25.668,Visual Search,,2025.1.1,59.81022216826589,2025-09-30 20h21.34.620850 +0530,
31,0,31,[np.float64(-0.15925925925925927)],[np.float64(-0.42314814814814816)],[0],[0],[1],[1.3589470000006258],['target'],31,0,31,0,63.45614260001457,,5,63.44639360002475,63.45614260001457,63.45614260001457,0.02416070000617765,64.80556760000763,[np.float64(-0.15925925925925927)],[np.float64(-0.42314814814814816)],[0],[0],[1],[1.3589470000006258],['target'],003,001,2025-09-30_20h21.25.668,Visual Search,,2025.1.1,59.81022216826589,2025-09-30 20h21.34.620850 +0530,
32,0,32,[np.float64(0.32314814814814813)],[np.float64(-0.05648148148148148)],[0],[0],[1],[1.6266575999907218],['target'],32,0,32,0,64.83768009999767,,5,64.82756920001702,64.83768009999767,64.83768009999767,0.021583500027190894,66.45431500000996,[np.float64(0.32314814814814813)],[np.float64(-0.05648148148148148)],[0],[0],[1],[1.6266575999907218],['target'],003,001,2025-09-30_20h21.25.668,Visual Search,,2025.1.1,59.81022216826589,2025-09-30 20h21.34.620850 +0530,
33,0,33,"[np.float64(0.32314814814814813), np.float64(0.09537037037037037), np.float64(0.1111111111111111)]","[np.float64(-0.05648148148148148), np.float64(0.1388888888888889), np.float64(0.12777777777777777)]","[0, 0, 0]","[0, 0, 0]","[1, 1, 1]","[0.0006693000032100827, 1.3294236999936402, 3.4111539000004996]","[None, None, 'target']",33,0,33,0,66.48818880002364,,5,66.4760611000238,66.48818880002364,66.48818880002364,0.02157829998759553,69.88743410000461,"[np.float64(0.32314814814814813), np.float64(0.09537037037037037), np.float64(0.1111111111111111)]","[np.float64(-0.05648148148148148), np.float64(0.1388888888888889), np.float64(0.12777777777777777)]","[0, 0, 0]","[0, 0, 0]","[1, 1, 1]","[0.0006693000032100827, 1.3294236999936402, 3.4111539000004996]","[None, None, 'target']",003,001,2025-09-30_20h21.25.668,Visual Search,,2025.1.1,59.81022216826589,2025-09-30 20h21.34.620850 +0530,
34,0,34,"[np.float64(0.1111111111111111), np.float64(0.22314814814814815), np.float64(0.2462962962962963)]","[np.float64(0.12777777777777777), np.float64(0.16111111111111112), np.float64(0.15555555555555556)]","[0, 0, 0]","[0, 0, 0]","[1, 1, 1]","[0.000512500002514571, 1.6871526000031736, 2.6706639000040013]","[None, None, 'target']",34,0,34,0,69.94642610001029,,10,69.93237890000455,69.94642610001029,69.94642610001029,0.04438259999733418,72.60314830002608,"[np.float64(0.1111111111111111), np.float64(0.22314814814814815), np.float64(0.2462962962962963)]","[np.float64(0.12777777777777777), np.float64(0.16111111111111112), np.float64(0.15555555555555556)]","[0, 0, 0]","[0, 0, 0]","[1, 1, 1]","[0.000512500002514571, 1.6871526000031736, 2.6706639000040013]","[None, None, 'target']",003,001,2025-09-30_20h21.25.668,Visual Search,,2025.1.1,59.81022216826589,2025-09-30 20h21.34.620850 +0530,
35,0,35,"[np.float64(0.2462962962962963), np.float64(0.11296296296296296)]","[np.float64(0.15555555555555556), np.float64(-0.18703703703703703)]","[0, 0]","[0, 0]","[1, 1]","[0.0006439000135287642, 2.368032200000016]","[None, 'target']",35,0,35,0,72.65086390002398,,10,72.63483280001674,72.65086390002398,72.65086390002398,0.03140089998487383,75.0029500000237,"[np.float64(0.2462962962962963), np.float64(0.11296296296296296)]","[np.float64(0.15555555555555556), np.float64(-0.18703703703703703)]","[0, 0]","[0, 0]","[1, 1]","[0.0006439000135287642, 2.368032200000016]","[None, 'target']",003,001,2025-09-30_20h21.25.668,Visual Search,,2025.1.1,59.81022216826589,2025-09-30 20h21.34.620850 +0530,
36,0,36,"[np.float64(0.11296296296296296), np.float64(0.1925925925925926)]","[np.float64(-0.18703703703703703), np.float64(0.25092592592592594)]","[0, 0]","[0, 0]","[1, 1]","[0.0006563999922946095, 2.4657782999856863]","[None, 'target']",36,0,36,0,75.05566000001272,,10,75.03739040001528,75.05566000001272,75.05566000001272,0.03423690001363866,77.50329190000775,"[np.float64(0.11296296296296296), np.float64(0.1925925925925926)]","[np.float64(-0.18703703703703703), np.float64(0.25092592592592594)]","[0, 0]","[0, 0]","[1, 1]","[0.0006563999922946095, 2.4657782999856863]","[None, 'target']",003,001,2025-09-30_20h21.25.668,Visual Search,,2025.1.1,59.81022216826589,2025-09-30 20h21.34.620850 +0530,
37,0,37,"[np.float64(0.1925925925925926), np.float64(-0.4777777777777778)]","[np.float64(0.25092592592592594), np.float64(-0.30277777777777776)]","[0, 0]","[0, 0]","[1, 1]","[0.001281999982893467, 2.392250300006708]","[None, 'target']",37,0,37,0,77.54388550002477,,5,77.52936430001864,77.54388550002477,77.54388550002477,0.025673600001027808,79.92202370002633,"[np.float64(0.1925925925925926), np.float64(-0.4777777777777778)]","[np.float64(0.25092592592592594), np.float64(-0.30277777777777776)]","[0, 0]","[0, 0]","[1, 1]","[0.001281999982893467, 2.392250300006708]","[None, 'target']",003,001,2025-09-30_20h21.25.668,Visual Search,,2025.1.1,59.81022216826589,2025-09-30 20h21.34.620850 +0530,
38,0,38,"[np.float64(-0.4777777777777778), np.float64(0.2935185185185185)]","[np.float64(-0.30277777777777776), np.float64(-0.24814814814814815)]","[0, 0]","[0, 0]","[1, 1]","[0.0006328000163193792, 2.4100968000129797]","[None, 'target']",38,0,38,0,79.98999700002605,,10,79.97523340000771,79.98999700002605,79.98999700002605,0.052040499984286726,82.38543480000226,"[np.float64(-0.4777777777777778), np.float64(0.2935185185185185)]","[np.float64(-0.30277777777777776), np.float64(-0.24814814814814815)]","[0, 0]","[0, 0]","[1, 1]","[0.0006328000163193792, 2.4100968000129797]","[None, 'target']",003,001,2025-09-30_20h21.25.668,Visual Search,,2025.1.1,59.81022216826589,2025-09-30 20h21.34.620850 +0530,
39,0,39,"[np.float64(0.2935185185185185), np.float64(-0.31203703703703706)]","[np.float64(-0.24814814814814815), np.float64(0.2712962962962963)]","[0, 0]","[0, 0]","[1, 1]","[0.0008283999923150986, 1.6821293999964837]","[None, 'target']",39,0,39,0,82.4153688000224,,5,82.40418670000508,82.4153688000224,82.4153688000224,0.018512200011173263,84.0865670000203,"[np.float64(0.2935185185185185), np.float64(-0.31203703703703706)]","[np.float64(-0.24814814814814815), np.float64(0.2712962962962963)]","[0, 0]","[0, 0]","[1, 1]","[0.0008283999923150986, 1.6821293999964837]","[None, 'target']",003,001,2025-09-30_20h21.25.668,Visual Search,,2025.1.1,59.81022216826589,2025-09-30 20h21.34.620850 +0530,
40,0,40,"[np.float64(-0.31203703703703706), np.float64(0.23055555555555557)]","[np.float64(0.2712962962962963), np.float64(-0.3435185185185185)]","[0, 0]","[0, 0]","[1, 1]","[0.000511500024003908, 2.2841007000242826]","[None, 'target']",40,0,40,0,84.17043990001548,,10,84.1513619000034,84.17043990001548,84.17043990001548,0.06410089999553747,86.43566500002635,"[np.float64(-0.31203703703703706), np.float64(0.23055555555555557)]","[np.float64(0.2712962962962963), np.float64(-0.3435185185185185)]","[0, 0]","[0, 0]","[1, 1]","[0.000511500024003908, 2.2841007000242826]","[None, 'target']",003,001,2025-09-30_20h21.25.668,Visual Search,,2025.1.1,59.81022216826589,2025-09-30 20h21.34.620850 +0530,
41,0,41,"[np.float64(0.23055555555555557), np.float64(0.0712962962962963)]","[np.float64(-0.3435185185185185), np.float64(0.13518518518518519)]","[0, 0]","[0, 0]","[1, 1]","[0.0006717000214848667, 2.0095787000027485]","[None, 'target']",41,0,41,0,86.49040940002305,,10,86.47501470000134,86.49040940002305,86.49040940002305,0.038646899978630245,88.48466380001628,"[np.float64(0.23055555555555557), np.float64(0.0712962962962963)]","[np.float64(-0.3435185185185185), np.float64(0.13518518518518519)]","[0, 0]","[0, 0]","[1, 1]","[0.0006717000214848667, 2.0095787000027485]","[None, 'target']",003,001,2025-09-30_20h21.25.668,Visual Search,,2025.1.1,59.81022216826589,2025-09-30 20h21.34.620850 +0530,
42,0,42,"[np.float64(0.0712962962962963), np.float64(-0.33240740740740743)]","[np.float64(0.13518518518518519), np.float64(-0.044444444444444446)]","[0, 0]","[0, 0]","[1, 1]","[0.001232499984325841, 1.5189755999890622]","[None, 'target']",42,0,42,0,88.51195150002604,,5,88.50044930001604,88.51195150002604,88.51195150002604,0.015538200008450076,90.02018770002178,"[np.float64(0.0712962962962963), np.float64(-0.33240740740740743)]","[np.float64(0.13518518518518519), np.float64(-0.044444444444444446)]","[0, 0]","[0, 0]","[1, 1]","[0.001232499984325841, 1.5189755999890622]","[None, 'target']",003,001,2025-09-30_20h21.25.668,Visual Search,,2025.1.1,59.81022216826589,2025-09-30 20h21.34.620850 +0530,
43,0,43,"[np.float64(-0.33240740740740743), np.float64(0.43333333333333335)]","[np.float64(-0.044444444444444446), np.float64(0.24166666666666667)]","[0, 0]","[0, 0]","[1, 1]","[0.0004886999959126115, 2.1142536999832373]","[None, 'target']",43,0,43,0,90.08710090001114,,10,90.06984050001483,90.08710090001114,90.08710090001114,0.0486504000145942,92.18419160001213,"[np.float64(-0.33240740740740743), np.float64(0.43333333333333335)]","[np.float64(-0.044444444444444446), np.float64(0.24166666666666667)]","[0, 0]","[0, 0]","[1, 1]","[0.0004886999959126115, 2.1142536999832373]","[None, 'target']",003,001,2025-09-30_20h21.25.668,Visual Search,,2025.1.1,59.81022216826589,2025-09-30 20h21.34.620850 +0530,
44,0,44,"[np.float64(0.43333333333333335), np.float64(-0.14166666666666666)]","[np.float64(0.24166666666666667), np.float64(-0.38055555555555554)]","[0, 0]","[0, 0]","[1, 1]","[0.0009485000045970082, 1.995894199993927]","[None, 'target']",44,0,44,0,92.21824640000705,,5,92.20553020000807,92.21824640000705,92.21824640000705,0.021121199999470264,94.20168040000135,"[np.float64(0.43333333333333335), np.float64(-0.14166666666666666)]","[np.float64(0.24166666666666667), np.float64(-0.38055555555555554)]","[0, 0]","[0, 0]","[1, 1]","[0.0009485000045970082, 1.995894199993927]","[None, 'target']",003,001,2025-09-30_20h21.25.668,Visual Search,,2025.1.1,59.81022216826589,2025-09-30 20h21.34.620850 +0530,
45,0,45,"[np.float64(-0.14166666666666666), np.float64(-0.19166666666666668)]","[np.float64(-0.38055555555555554), np.float64(0.4583333333333333)]","[0, 0]","[0, 0]","[1, 1]","[0.0005055000074207783, 1.6526568999979645]","[None, 'target']",45,0,45,0,94.24295070001972,,5,94.2326017000014,94.24295070001972,94.24295070001972,0.03028390000690706,95.88551060002646,"[np.float64(-0.14166666666666666), np.float64(-0.19166666666666668)]","[np.float64(-0.38055555555555554), np.float64(0.4583333333333333)]","[0, 0]","[0, 0]","[1, 1]","[0.0005055000074207783, 1.6526568999979645]","[None, 'target']",003,001,2025-09-30_20h21.25.668,Visual Search,,2025.1.1,59.81022216826589,2025-09-30 20h21.34.620850 +0530,
46,0,46,"[np.float64(-0.19166666666666668), np.float64(0.028703703703703703)]","[np.float64(0.4583333333333333), np.float64(0.2833333333333333)]","[0, 0]","[0, 0]","[1, 1]","[0.0004990000161342323, 1.637610300007509]","[None, 'target']",46,0,46,0,95.92735920002451,,5,95.91673789999913,95.92735920002451,95.92735920002451,0.030715899978531525,97.55465920001734,"[np.float64(-0.19166666666666668), np.float64(0.028703703703703703)]","[np.float64(0.4583333333333333), np.float64(0.2833333333333333)]","[0, 0]","[0, 0]","[1, 1]","[0.0004990000161342323, 1.637610300007509]","[None, 'target']",003,001,2025-09-30_20h21.25.668,Visual Search,,2025.1.1,59.81022216826589,2025-09-30 20h21.34.620850 +0530,
47,0,47,[np.float64(-0.3351851851851852)],[np.float64(-0.08981481481481482)],[0],[0],[1],[2.258312499994645],['target'],47,0,47,0,97.64059530000668,,10,97.62520300000324,97.64059530000668,97.64059530000668,0.06971599999815226,99.88359320000745,[np.float64(-0.3351851851851852)],[np.float64(-0.08981481481481482)],[0],[0],[1],[2.258312499994645],['target'],003,001,2025-09-30_20h21.25.668,Visual Search,,2025.1.1,59.81022216826589,2025-09-30 20h21.34.620850 +0530,
48,0,48,"[np.float64(-0.3351851851851852), np.float64(0.33796296296296297)]","[np.float64(-0.08981481481481482), np.float64(0.12222222222222222)]","[0, 0]","[0, 0]","[1, 1]","[0.0009896000265143812, 2.1774449000076856]","[None, 'target']",48,0,48,0,99.93927870001062,,10,99.92304829999921,99.93927870001062,99.93927870001062,0.03914350000559352,102.1005677000212,"[np.float64(-0.3351851851851852), np.float64(0.33796296296296297)]","[np.float64(-0.08981481481481482), np.float64(0.12222222222222222)]","[0, 0]","[0, 0]","[1, 1]","[0.0009896000265143812, 2.1774449000076856]","[None, 'target']",003,001,2025-09-30_20h21.25.668,Visual Search,,2025.1.1,59.81022216826589,2025-09-30 20h21.34.620850 +0530,
49,0,49,"[np.float64(0.33796296296296297), np.float64(0.4083333333333333)]","[np.float64(0.12222222222222222), np.float64(0.4703703703703704)]","[0, 0]","[0, 0]","[1, 1]","[0.0006824999873060733, 1.8961903000017628]","[None, 'target']",49,0,49,0,102.1311080000014,,5,102.1213711000164,102.1311080000014,102.1311080000014,0.020328300015535206,104.01796990001458,"[np.float64(0.33796296296296297), np.float64(0.4083333333333333)]","[np.float64(0.12222222222222222), np.float64(0.4703703703703704)]","[0, 0]","[0, 0]","[1, 1]","[0.0006824999873060733, 1.8961903000017628]","[None, 'target']",003,001,2025-09-30_20h21.25.668,Visual Search,,2025.1.1,59.81022216826589,2025-09-30 20h21.34.620850 +0530,
50,0,50,[np.float64(0.4888888888888889)],[np.float64(0.3435185185185185)],[0],[0],[1],[3.3808081000170205],['target'],50,0,50,0,104.08570350002265,,10,104.06959410000127,104.08570350002265,104.08570350002265,0.05046180001227185,107.45058040000731,[np.float64(0.4888888888888889)],[np.float64(0.3435185185185185)],[0],[0],[1],[3.3808081000170205],['target'],003,001,2025-09-30_20h21.25.668,Visual Search,,2025.1.1,59.81022216826589,2025-09-30 20h21.34.620850 +0530,
51,0,51,"[np.float64(0.4888888888888889), np.float64(0.33055555555555555)]","[np.float64(0.3435185185185185), np.float64(0.3398148148148148)]","[0, 0]","[0, 0]","[1, 1]","[0.0009963999909814447, 1.6401849999965634]","[None, 'target']",51,0,51,0,107.48982320001232,,5,107.47607970001991,107.48982320001232,107.48982320001232,0.02501839998876676,109.11638150000363,"[np.float64(0.4888888888888889), np.float64(0.33055555555555555)]","[np.float64(0.3435185185185185), np.float64(0.3398148148148148)]","[0, 0]","[0, 0]","[1, 1]","[0.0009963999909814447, 1.6401849999965634]","[None, 'target']",003,001,2025-09-30_20h21.25.668,Visual Search,,2025.1.1,59.81022216826589,2025-09-30 20h21.34.620850 +0530,
52,0,52,"[np.float64(0.33055555555555555), np.float64(-0.04814814814814815)]","[np.float64(0.3398148148148148), np.float64(0.1361111111111111)]","[0, 0]","[0, 0]","[1, 1]","[0.0008611000084783882, 1.755076100002043]","[None, 'target']",52,0,52,0,109.15474300002097,,5,109.14470100001199,109.15474300002097,109.15474300002097,0.027595899999141693,110.89989369999967,"[np.float64(0.33055555555555555), np.float64(-0.04814814814814815)]","[np.float64(0.3398148148148148), np.float64(0.1361111111111111)]","[0, 0]","[0, 0]","[1, 1]","[0.0008611000084783882, 1.755076100002043]","[None, 'target']",003,001,2025-09-30_20h21.25.668,Visual Search,,2025.1.1,59.81022216826589,2025-09-30 20h21.34.620850 +0530,
53,0,53,"[np.float64(-0.04814814814814815), np.float64(0.11388888888888889)]","[np.float64(0.1361111111111111), np.float64(0.16111111111111112)]","[0, 0]","[0, 0]","[1, 1]","[0.000979200005531311, 1.7315799000207335]","[None, 'target']",53,0,53,0,110.94828080001753,,5,110.93692890001694,110.94828080001753,110.94828080001753,0.036739900009706616,112.66874690001714,"[np.float64(-0.04814814814814815), np.float64(0.11388888888888889)]","[np.float64(0.1361111111111111), np.float64(0.16111111111111112)]","[0, 0]","[0, 0]","[1, 1]","[0.000979200005531311, 1.7315799000207335]","[None, 'target']",003,001,2025-09-30_20h21.25.668,Visual Search,,2025.1.1,59.81022216826589,2025-09-30 20h21.34.620850 +0530,
54,0,54,"[np.float64(0.11388888888888889), np.float64(0.43796296296296294)]","[np.float64(0.16111111111111112), np.float64(-0.06018518518518518)]","[0, 0]","[0, 0]","[1, 1]","[0.0005939999828115106, 2.027106499997899]","[None, 'target']",54,0,54,0,112.71931159999804,,5,112.70818270000746,112.71931159999804,112.71931159999804,0.038735799986170605,114.73554520000471,"[np.float64(0.11388888888888889), np.float64(0.43796296296296294)]","[np.float64(0.16111111111111112), np.float64(-0.06018518518518518)]","[0, 0]","[0, 0]","[1, 1]","[0.0005939999828115106, 2.027106499997899]","[None, 'target']",003,001,2025-09-30_20h21.25.668,Visual Search,,2025.1.1,59.81022216826589,2025-09-30 20h21.34.620850 +0530,
55,0,55,[np.float64(0.2601851851851852)],[np.float64(0.39351851851851855)],[0],[0],[1],[1.7578424999956042],['target'],55,0,55,0,114.80823080000118,,10,114.79162200001883,114.80823080000118,114.80823080000118,0.055478199996287,116.54963130000397,[np.float64(0.2601851851851852)],[np.float64(0.39351851851851855)],[0],[0],[1],[1.7578424999956042],['target'],003,001,2025-09-30_20h21.25.668,Visual Search,,2025.1.1,59.81022216826589,2025-09-30 20h21.34.620850 +0530,
56,0,56,[np.float64(0.06388888888888888)],[np.float64(0.014814814814814815)],[0],[0],[1],[2.18806209997274],['target'],56,0,56,0,116.58735420001904,,5,116.57771320000757,116.58735420001904,116.58735420001904,0.027681999985361472,118.7658972000063,[np.float64(0.06388888888888888)],[np.float64(0.014814814814814815)],[0],[0],[1],[2.18806209997274],['target'],003,001,2025-09-30_20h21.25.668,Visual Search,,2025.1.1,59.81022216826589,2025-09-30 20h21.34.620850 +0530,
57,0,57,"[np.float64(0.06388888888888888), np.float64(0.05)]","[np.float64(0.014814814814814815), np.float64(-0.04814814814814815)]","[0, 0]","[0, 0]","[1, 1]","[0.0011172000085934997, 1.3121021000260953]","[None, 'target']",57,0,57,0,118.82064260001061,,5,118.80310020002071,118.82064260001061,118.82064260001061,0.03695870001683943,120.11527130001923,"[np.float64(0.06388888888888888), np.float64(0.05)]","[np.float64(0.014814814814814815), np.float64(-0.04814814814814815)]","[0, 0]","[0, 0]","[1, 1]","[0.0011172000085934997, 1.3121021000260953]","[None, 'target']",003,001,2025-09-30_20h21.25.668,Visual Search,,2025.1.1,59.81022216826589,2025-09-30 20h21.34.620850 +0530,
58,0,58,"[np.float64(0.05), np.float64(-0.2324074074074074)]","[np.float64(-0.04814814814814815), np.float64(-0.22407407407407406)]","[0, 0]","[0, 0]","[1, 1]","[0.0006699999794363976, 1.875008799979696]","[None, 'target']",58,0,58,0,120.17740000001504,,10,120.1609521000064,120.17740000001504,120.17740000001504,0.045309699984500185,122.0360693000257,"[np.float64(0.05), np.float64(-0.2324074074074074)]","[np.float64(-0.04814814814814815), np.float64(-0.22407407407407406)]","[0, 0]","[0, 0]","[1, 1]","[0.0006699999794363976, 1.875008799979696]","[None, 'target']",003,001,2025-09-30_20h21.25.668,Visual Search,,2025.1.1,59.81022216826589,2025-09-30 20h21.34.620850 +0530,
59,0,59,"[np.float64(-0.2324074074074074), np.float64(-0.09444444444444444)]","[np.float64(-0.22407407407407406), np.float64(-0.44351851851851853)]","[0, 0]","[0, 0]","[1, 1]","[0.0006787000165786594, 1.8166136000072584]","[None, 'target']",59,0,59,0,122.0972498000192,,10,122.08084290000261,122.0972498000192,122.0972498000192,0.04444079997483641,123.89755890000379,"[np.float64(-0.2324074074074074), np.float64(-0.09444444444444444)]","[np.float64(-0.22407407407407406), np.float64(-0.44351851851851853)]","[0, 0]","[0, 0]","[1, 1]","[0.0006787000165786594, 1.8166136000072584]","[None, 'target']",003,001,2025-09-30_20h21.25.668,Visual Search,,2025.1.1,59.81022216826589,2025-09-30 20h21.34.620850 +0530,
60,0,60,"[np.float64(-0.09444444444444444), np.float64(0.28703703703703703)]","[np.float64(-0.44351851851851853), np.float64(-0.45092592592592595)]","[0, 0]","[0, 0]","[1, 1]","[0.000677400006679818, 1.886936800001422]","[None, 'target']",60,0,60,0,123.94419639999978,,10,123.92697530001169,123.94419639999978,123.94419639999978,0.02908670000033453,125.8139864000259,"[np.float64(-0.09444444444444444), np.float64(0.28703703703703703)]","[np.float64(-0.44351851851851853), np.float64(-0.45092592592592595)]","[0, 0]","[0, 0]","[1, 1]","[0.000677400006679818, 1.886936800001422]","[None, 'target']",003,001,2025-09-30_20h21.25.668,Visual Search,,2025.1.1,59.81022216826589,2025-09-30 20h21.34.620850 +0530,
61,0,61,"[np.float64(0.28703703703703703), np.float64(0.3277777777777778)]","[np.float64(-0.45092592592592595), np.float64(0.30648148148148147)]","[0, 0]","[0, 0]","[1, 1]","[0.000676499999826774, 1.500085500010755]","[None, 'target']",61,0,61,0,125.8639185000211,,10,125.84747190002236,125.8639185000211,125.8639185000211,0.03312579999328591,127.34766780000064,"[np.float64(0.28703703703703703), np.float64(0.3277777777777778)]","[np.float64(-0.45092592592592595), np.float64(0.30648148148148147)]","[0, 0]","[0, 0]","[1, 1]","[0.000676499999826774, 1.500085500010755]","[None, 'target']",003,001,2025-09-30_20h21.25.668,Visual Search,,2025.1.1,59.81022216826589,2025-09-30 20h21.34.620850 +0530,
62,0,62,"[np.float64(0.3277777777777778), np.float64(-0.2972222222222222)]","[np.float64(0.30648148148148147), np.float64(0.025925925925925925)]","[0, 0]","[0, 0]","[1, 1]","[0.0009589999972376972, 1.627422799996566]","[None, 'target']",62,0,62,0,127.38313110001036,,5,127.37092670000857,127.38313110001036,127.38313110001036,0.022972699982346967,128.99876980000408,"[np.float64(0.3277777777777778), np.float64(-0.2972222222222222)]","[np.float64(0.30648148148148147), np.float64(0.025925925925925925)]","[0, 0]","[0, 0]","[1, 1]","[0.0009589999972376972, 1.627422799996566]","[None, 'target']",003,001,2025-09-30_20h21.25.668,Visual Search,,2025.1.1,59.81022216826589,2025-09-30 20h21.34.620850 +0530,
63,0,63,"[np.float64(-0.2972222222222222), np.float64(0.09907407407407408)]","[np.float64(0.025925925925925925), np.float64(0.37777777777777777)]","[0, 0]","[0, 0]","[1, 1]","[0.0011411999876145273, 1.633117699995637]","[None, 'target']",63,0,63,0,129.06176760001108,,5,129.04781230000663,129.06176760001108,129.06176760001108,0.04789409998920746,130.6810158000153,"[np.float64(-0.2972222222222222), np.float64(0.09907407407407408)]","[np.float64(0.025925925925925925), np.float64(0.37777777777777777)]","[0, 0]","[0, 0]","[1, 1]","[0.0011411999876145273, 1.633117699995637]","[None, 'target']",003,001,2025-09-30_20h21.25.668,Visual Search,,2025.1.1,59.81022216826589,2025-09-30 20h21.34.620850 +0530,
64,0,64,"[np.float64(0.09907407407407408), np.float64(0.48703703703703705)]","[np.float64(0.37777777777777777), np.float64(0.1398148148148148)]","[0, 0]","[0, 0]","[1, 1]","[0.0005737000028602779, 1.7380728999851272]","[None, 'target']",64,0,64,0,130.72002659999998,,5,130.7086139000021,130.72002659999998,130.72002659999998,0.02728239999851212,132.44682589999866,"[np.float64(0.09907407407407408), np.float64(0.48703703703703705)]","[np.float64(0.37777777777777777), np.float64(0.1398148148148148)]","[0, 0]","[0, 0]","[1, 1]","[0.0005737000028602779, 1.7380728999851272]","[None, 'target']",003,001,2025-09-30_20h21.25.668,Visual Search,,2025.1.1,59.81022216826589,2025-09-30 20h21.34.620850 +0530,
65,0,65,"[np.float64(0.48703703703703705), np.float64(-0.3138888888888889)]","[np.float64(0.1398148148148148), np.float64(-0.35462962962962963)]","[0, 0]","[0, 0]","[1, 1]","[0.0007387999794445932, 2.046850299986545]","[None, 'target']",65,0,65,0,132.4968904000125,,5,132.4828687000263,132.4968904000125,132.4968904000125,0.03571140000713058,134.52979349999805,"[np.float64(0.48703703703703705), np.float64(-0.3138888888888889)]","[np.float64(0.1398148148148148), np.float64(-0.35462962962962963)]","[0, 0]","[0, 0]","[1, 1]","[0.0007387999794445932, 2.046850299986545]","[None, 'target']",003,001,2025-09-30_20h21.25.668,Visual Search,,2025.1.1,59.81022216826589,2025-09-30 20h21.34.620850 +0530,
66,0,66,"[np.float64(-0.3138888888888889), np.float64(0.22777777777777777)]","[np.float64(-0.3537037037037037), np.float64(0.45092592592592595)]","[0, 0]","[0, 0]","[1, 1]","[0.0007859999896027148, 2.0713481999991927]","[None, 'target']",66,0,66,0,134.59361200002604,,10,134.57521470001666,134.59361200002604,134.59361200002604,0.04523729998618364,136.64667780001764,"[np.float64(-0.3138888888888889), np.float64(0.22777777777777777)]","[np.float64(-0.3537037037037037), np.float64(0.45092592592592595)]","[0, 0]","[0, 0]","[1, 1]","[0.0007859999896027148, 2.0713481999991927]","[None, 'target']",003,001,2025-09-30_20h21.25.668,Visual Search,,2025.1.1,59.81022216826589,2025-09-30 20h21.34.620850 +0530,
67,0,67,"[np.float64(0.22777777777777777), np.float64(0.26944444444444443)]","[np.float64(0.45092592592592595), np.float64(0.16666666666666666)]","[0, 0]","[0, 0]","[1, 1]","[0.0007866000232752413, 1.1379875999991782]","[None, 'target']",67,0,67,0,136.6874198000005,,5,136.6766234000097,136.6874198000005,136.6874198000005,0.029550300008850172,137.81497279999894,"[np.float64(0.22777777777777777), np.float64(0.26944444444444443)]","[np.float64(0.45092592592592595), np.float64(0.16666666666666666)]","[0, 0]","[0, 0]","[1, 1]","[0.0007866000232752413, 1.1379875999991782]","[None, 'target']",003,001,2025-09-30_20h21.25.668,Visual Search,,2025.1.1,59.81022216826589,2025-09-30 20h21.34.620850 +0530,
68,0,68,[np.float64(-0.10092592592592593)],[np.float64(0.4537037037037037)],[0],[0],[1],[1.8622286999889184],['target'],68,0,68,0,137.90003740001703,,10,137.8842513000127,137.90003740001703,137.90003740001703,0.06808070000261068,139.74661729999934,[np.float64(-0.10092592592592593)],[np.float64(0.4537037037037037)],[0],[0],[1],[1.8622286999889184],['target'],003,001,2025-09-30_20h21.25.668,Visual Search,,2025.1.1,59.81022216826589,2025-09-30 20h21.34.620850 +0530,
69,0,69,"[np.float64(-0.10092592592592593), np.float64(0.12407407407407407)]","[np.float64(0.4537037037037037), np.float64(0.17037037037037037)]","[0, 0]","[0, 0]","[1, 1]","[0.0006597999890800565, 1.457162899983814]","[None, 'target']",69,0,69,0,139.78564080002252,,5,139.774396599998,139.78564080002252,139.78564080002252,0.02702139999018982,141.2317813000118,"[np.float64(-0.10092592592592593), np.float64(0.12407407407407407)]","[np.float64(0.4537037037037037), np.float64(0.17037037037037037)]","[0, 0]","[0, 0]","[1, 1]","[0.0006597999890800565, 1.457162899983814]","[None, 'target']",003,001,2025-09-30_20h21.25.668,Visual Search,,2025.1.1,59.81022216826589,2025-09-30 20h21.34.620850 +0530,
70,0,70,"[np.float64(0.12407407407407407), np.float64(0.36944444444444446)]","[np.float64(0.17037037037037037), np.float64(-0.4064814814814815)]","[0, 0]","[0, 0]","[1, 1]","[0.0015961999888531864, 1.6983762999880128]","[None, 'target']",70,0,70,0,141.29837440000847,,5,141.28207880002446,141.29837440000847,141.29837440000847,0.04963829999906011,142.9805655000091,"[np.float64(0.12407407407407407), np.float64(0.36944444444444446)]","[np.float64(0.17037037037037037), np.float64(-0.4064814814814815)]","[0, 0]","[0, 0]","[1, 1]","[0.0015961999888531864, 1.6983762999880128]","[None, 'target']",003,001,2025-09-30_20h21.25.668,Visual Search,,2025.1.1,59.81022216826589,2025-09-30 20h21.34.620850 +0530,
71,0,71,"[np.float64(0.36944444444444446), np.float64(-0.23981481481481481)]","[np.float64(-0.4064814814814815), np.float64(-0.2898148148148148)]","[0, 0]","[0, 0]","[1, 1]","[0.000583200016990304, 1.7525796000263654]","[None, 'target']",71,0,71,0,143.04512250001426,,10,143.02629660000093,143.04512250001426,143.04512250001426,0.044970500021008775,144.7790490000043,"[np.float64(0.36944444444444446), np.float64(-0.23981481481481481)]","[np.float64(-0.4064814814814815), np.float64(-0.2898148148148148)]","[0, 0]","[0, 0]","[1, 1]","[0.000583200016990304, 1.7525796000263654]","[None, 'target']",003,001,2025-09-30_20h21.25.668,Visual Search,,2025.1.1,59.81022216826589,2025-09-30 20h21.34.620850 +0530,
72,0,72,"[np.float64(-0.23981481481481481), np.float64(0.15648148148148147)]","[np.float64(-0.2898148148148148), np.float64(0.03981481481481482)]","[0, 0]","[0, 0]","[1, 1]","[0.0008108000038191676, 1.8140504999901168]","[None, 'target']",72,0,72,0,144.80947790000937,,5,144.7980657000153,144.80947790000937,144.80947790000937,0.01861489997827448,146.6121786000149,"[np.float64(-0.23981481481481481), np.float64(0.15648148148148147)]","[np.float64(-0.2898148148148148), np.float64(0.03981481481481482)]","[0, 0]","[0, 0]","[1, 1]","[0.0008108000038191676, 1.8140504999901168]","[None, 'target']",003,001,2025-09-30_20h21.25.668,Visual Search,,2025.1.1,59.81022216826589,2025-09-30 20h21.34.620850 +0530,
73,0,73,"[np.float64(0.15648148148148147), np.float64(-0.22407407407407406)]","[np.float64(0.03981481481481482), np.float64(0.2972222222222222)]","[0, 0]","[0, 0]","[1, 1]","[0.0006849000055808574, 2.2001902000047266]","[None, 'target']",73,0,73,0,146.66267040002276,,10,146.64569280002615,146.66267040002276,146.66267040002276,0.03332240000599995,148.84608440002194,"[np.float64(0.15648148148148147), np.float64(-0.22407407407407406)]","[np.float64(0.03981481481481482), np.float64(0.2972222222222222)]","[0, 0]","[0, 0]","[1, 1]","[0.0006849000055808574, 2.2001902000047266]","[None, 'target']",003,001,2025-09-30_20h21.25.668,Visual Search,,2025.1.1,59.81022216826589,2025-09-30 20h21.34.620850 +0530,
74,0,74,"[np.float64(-0.22407407407407406), np.float64(0.14722222222222223)]","[np.float64(0.2972222222222222), np.float64(-0.3648148148148148)]","[0, 0]","[0, 0]","[1, 1]","[0.001504099986050278, 2.3819269000086933]","[None, 'target']",74,0,74,0,148.8939401000098,,5,148.88078060001135,148.8939401000098,148.8939401000098,0.03397299998323433,151.26306110000587,"[np.float64(-0.22407407407407406), np.float64(0.14722222222222223)]","[np.float64(0.2972222222222222), np.float64(-0.3648148148148148)]","[0, 0]","[0, 0]","[1, 1]","[0.001504099986050278, 2.3819269000086933]","[None, 'target']",003,001,2025-09-30_20h21.25.668,Visual Search,,2025.1.1,59.81022216826589,2025-09-30 20h21.34.620850 +0530,
75,0,75,[np.float64(0.12407407407407407)],[np.float64(-0.41388888888888886)],[0],[0],[1],[1.3747818999981973],['target'],75,0,75,0,151.30091520000133,,5,151.2896180000098,151.30091520000133,151.30091520000133,0.025576599990017712,152.66467160001048,[np.float64(0.12407407407407407)],[np.float64(-0.41388888888888886)],[0],[0],[1],[1.3747818999981973],['target'],003,001,2025-09-30_20h21.25.668,Visual Search,,2025.1.1,59.81022216826589,2025-09-30 20h21.34.620850 +0530,
76,0,76,"[np.float64(0.125), np.float64(0.3907407407407407)]","[np.float64(-0.41388888888888886), np.float64(-0.14351851851851852)]","[0, 0]","[0, 0]","[1, 1]","[0.0006824000156484544, 1.6861656999972183]","[None, 'target']",76,0,76,0,152.74502310002572,,10,152.725477400003,152.74502310002572,152.74502310002572,0.060162799985846505,154.4117725000251,"[np.float64(0.125), np.float64(0.3907407407407407)]","[np.float64(-0.41388888888888886), np.float64(-0.14351851851851852)]","[0, 0]","[0, 0]","[1, 1]","[0.0006824000156484544, 1.6861656999972183]","[None, 'target']",003,001,2025-09-30_20h21.25.668,Visual Search,,2025.1.1,59.81022216826589,2025-09-30 20h21.34.620850 +0530,
77,0,77,"[np.float64(0.3907407407407407), np.float64(-0.06388888888888888)]","[np.float64(-0.14351851851851852), np.float64(0.24351851851851852)]","[0, 0]","[0, 0]","[1, 1]","[0.0006317000079434365, 1.2994947000115644]","[None, 'target']",77,0,77,0,154.43965850002132,,5,154.4291293999995,154.43965850002132,154.43965850002132,0.016932300000917166,155.72880470001837,"[np.float64(0.3907407407407407), np.float64(-0.06388888888888888)]","[np.float64(-0.14351851851851852), np.float64(0.24351851851851852)]","[0, 0]","[0, 0]","[1, 1]","[0.0006317000079434365, 1.2994947000115644]","[None, 'target']",003,001,2025-09-30_20h21.25.668,Visual Search,,2025.1.1,59.81022216826589,2025-09-30 20h21.34.620850 +0530,
78,0,78,[np.float64(0.007407407407407408)],[np.float64(-0.4638888888888889)],[0],[0],[1],[2.8284985000209417],['target'],78,0,78,0,155.7982100000081,,10,155.78268329999992,155.7982100000081,155.7982100000081,0.05344150000018999,158.61127780002425,[np.float64(0.007407407407407408)],[np.float64(-0.4638888888888889)],[0],[0],[1],[2.8284985000209417],['target'],003,001,2025-09-30_20h21.25.668,Visual Search,,2025.1.1,59.81022216826589,2025-09-30 20h21.34.620850 +0530,
79,0,79,"[np.float64(0.007407407407407408), np.float64(0.24814814814814815), np.float64(0.23703703703703705)]","[np.float64(-0.4638888888888889), np.float64(-0.1037037037037037), np.float64(-0.13333333333333333)]","[0, 0, 0]","[0, 0, 0]","[1, 1, 1]","[0.0007257999968715012, 1.1214350999798626, 1.6720470000000205]","[None, None, 'target']",79,0,79,0,158.6733080999984,,10,158.65564620000077,158.6733080999984,158.6733080999984,0.04409539999323897,160.3277694999997,"[np.float64(0.007407407407407408), np.float64(0.24814814814814815), np.float64(0.23703703703703705)]","[np.float64(-0.4638888888888889), np.float64(-0.1037037037037037), np.float64(-0.13333333333333333)]","[0, 0, 0]","[0, 0, 0]","[1, 1, 1]","[0.0007257999968715012, 1.1214350999798626, 1.6720470000000205]","[None, None, 'target']",003,001,2025-09-30_20h21.25.668,Visual Search,,2025.1.1,59.81022216826589,2025-09-30 20h21.34.620850 +0530,
80,0,80,"[np.float64(0.23703703703703705), np.float64(0.10555555555555556)]","[np.float64(-0.13333333333333333), np.float64(0.36018518518518516)]","[0, 0]","[0, 0]","[1, 1]","[0.0007316000119317323, 1.2287527000007685]","[None, 'target']",80,0,80,0,160.36283090000506,,5,160.35144680002122,160.36283090000506,160.36283090000506,0.023291299992706627,161.58060840002145,"[np.float64(0.23703703703703705), np.float64(0.10555555555555556)]","[np.float64(-0.13333333333333333), np.float64(0.36018518518518516)]","[0, 0]","[0, 0]","[1, 1]","[0.0007316000119317323, 1.2287527000007685]","[None, 'target']",003,001,2025-09-30_20h21.25.668,Visual Search,,2025.1.1,59.81022216826589,2025-09-30 20h21.34.620850 +0530,
81,0,81,"[np.float64(0.10555555555555556), np.float64(-0.23981481481481481)]","[np.float64(0.36018518518518516), np.float64(0.475)]","[0, 0]","[0, 0]","[1, 1]","[0.0009204999951180071, 1.7548220000171568]","[None, 'target']",81,0,81,0,161.63557690000744,,5,161.6233307000075,161.63557690000744,161.63557690000744,0.04159470001468435,163.37831390000065,"[np.float64(0.10555555555555556), np.float64(-0.23981481481481481)]","[np.float64(0.36018518518518516), np.float64(0.475)]","[0, 0]","[0, 0]","[1, 1]","[0.0009204999951180071, 1.7548220000171568]","[None, 'target']",003,001,2025-09-30_20h21.25.668,Visual Search,,2025.1.1,59.81022216826589,2025-09-30 20h21.34.620850 +0530,
82,0,82,"[np.float64(-0.23981481481481481), np.float64(0.4537037037037037)]","[np.float64(0.475), np.float64(-0.11388888888888889)]","[0, 0]","[0, 0]","[1, 1]","[0.0006279000081121922, 1.9350281000079121]","[None, 'target']",82,0,82,0,163.41933760000393,,5,163.40906580002047,163.41933760000393,163.41933760000393,0.03041310000116937,165.34439080001903,"[np.float64(-0.23981481481481481), np.float64(0.4537037037037037)]","[np.float64(0.475), np.float64(-0.11388888888888889)]","[0, 0]","[0, 0]","[1, 1]","[0.0006279000081121922, 1.9350281000079121]","[None, 'target']",003,001,2025-09-30_20h21.25.668,Visual Search,,2025.1.1,59.81022216826589,2025-09-30 20h21.34.620850 +0530,
83,0,83,"[np.float64(0.4537037037037037), np.float64(0.12777777777777777)]","[np.float64(-0.11388888888888889), np.float64(0.30185185185185187)]","[0, 0]","[0, 0]","[1, 1]","[0.000580700027057901, 1.7424737000255845]","[None, 'target']",83,0,83,0,165.39682180000818,,5,165.38664260000223,165.39682180000818,165.39682180000818,0.041090199985774234,167.1294695000106,"[np.float64(0.4537037037037037), np.float64(0.12777777777777777)]","[np.float64(-0.11388888888888889), np.float64(0.30185185185185187)]","[0, 0]","[0, 0]","[1, 1]","[0.000580700027057901, 1.7424737000255845]","[None, 'target']",003,001,2025-09-30_20h21.25.668,Visual Search,,2025.1.1,59.81022216826589,2025-09-30 20h21.34.620850 +0530,
84,0,84,[np.float64(0.125)],[np.float64(0.3509259259259259)],[0],[0],[1],[1.2848676000139676],['target'],84,0,84,0,167.1890526000061,,5,167.1786428000196,167.1890526000061,167.1890526000061,0.04821620002621785,168.46370730001945,[np.float64(0.125)],[np.float64(0.3509259259259259)],[0],[0],[1],[1.2848676000139676],['target'],003,001,2025-09-30_20h21.25.668,Visual Search,,2025.1.1,59.81022216826589,2025-09-30 20h21.34.620850 +0530,
85,0,85,[np.float64(0.32037037037037036)],[np.float64(0.4564814814814815)],[0],[0],[1],[2.004635600023903],['target'],85,0,85,0,168.55601590001606,,10,168.53967070000363,168.55601590001606,168.55601590001606,0.07553430000552908,170.5445113000169,[np.float64(0.32037037037037036)],[np.float64(0.4564814814814815)],[0],[0],[1],[2.004635600023903],['target'],003,001,2025-09-30_20h21.25.668,Visual Search,,2025.1.1,59.81022216826589,2025-09-30 20h21.34.620850 +0530,
86,0,86,"[np.float64(0.32037037037037036), np.float64(-0.22037037037037038)]","[np.float64(0.4564814814814815), np.float64(0.4722222222222222)]","[0, 0]","[0, 0]","[1, 1]","[0.0006394000083673745, 1.9660572000138927]","[None, 'target']",86,0,86,0,170.58727610000642,,5,170.57676270001684,170.58727610000642,170.58727610000642,0.03162240001256578,172.54304860002594,"[np.float64(0.32037037037037036), np.float64(-0.22037037037037038)]","[np.float64(0.4564814814814815), np.float64(0.4722222222222222)]","[0, 0]","[0, 0]","[1, 1]","[0.0006394000083673745, 1.9660572000138927]","[None, 'target']",003,001,2025-09-30_20h21.25.668,Visual Search,,2025.1.1,59.81022216826589,2025-09-30 20h21.34.620850 +0530,
87,0,87,"[np.float64(-0.22037037037037038), np.float64(0.21296296296296297)]","[np.float64(0.4722222222222222), np.float64(-0.19074074074074074)]","[0, 0]","[0, 0]","[1, 1]","[0.0005421000241767615, 1.7936936000187416]","[None, 'target']",87,0,87,0,172.5764267000195,,5,172.565336700005,172.5764267000195,172.5764267000195,0.021625199995469302,174.3591688000015,"[np.float64(-0.22037037037037038), np.float64(0.21296296296296297)]","[np.float64(0.4722222222222222), np.float64(-0.19074074074074074)]","[0, 0]","[0, 0]","[1, 1]","[0.0005421000241767615, 1.7936936000187416]","[None, 'target']",003,001,2025-09-30_20h21.25.668,Visual Search,,2025.1.1,59.81022216826589,2025-09-30 20h21.34.620850 +0530,
88,0,88,"[np.float64(0.21296296296296297), np.float64(-0.03796296296296296)]","[np.float64(-0.19074074074074074), np.float64(0.25277777777777777)]","[0, 0]","[0, 0]","[1, 1]","[0.0006023000169079751, 1.7871553000004496]","[None, 'target']",88,0,88,0,174.40029040002264,,5,174.38968510000268,174.40029040002264,174.40029040002264,0.030216700019082054,176.17709209999884,"[np.float64(0.21296296296296297), np.float64(-0.03796296296296296)]","[np.float64(-0.19074074074074074), np.float64(0.25277777777777777)]","[0, 0]","[0, 0]","[1, 1]","[0.0006023000169079751, 1.7871553000004496]","[None, 'target']",003,001,2025-09-30_20h21.25.668,Visual Search,,2025.1.1,59.81022216826589,2025-09-30 20h21.34.620850 +0530,
89,0,89,"[np.float64(-0.03796296296296296), np.float64(-0.3611111111111111)]","[np.float64(0.25277777777777777), np.float64(0.14074074074074075)]","[0, 0]","[0, 0]","[1, 1]","[0.0007445999945048243, 1.9262574999884237]","[None, 'target']",89,0,89,0,176.22965000002296,,5,176.21816550000221,176.22965000002296,176.22965000002296,0.04040679999161512,178.14462840001215,"[np.float64(-0.03796296296296296), np.float64(-0.3611111111111111)]","[np.float64(0.25277777777777777), np.float64(0.14074074074074075)]","[0, 0]","[0, 0]","[1, 1]","[0.0007445999945048243, 1.9262574999884237]","[None, 'target']",003,001,2025-09-30_20h21.25.668,Visual Search,,2025.1.1,59.81022216826589,2025-09-30 20h21.34.620850 +0530,
90,0,90,"[np.float64(-0.3611111111111111), np.float64(-0.1935185185185185)]","[np.float64(0.14074074074074075), np.float64(0.06111111111111111)]","[0, 0]","[0, 0]","[1, 1]","[0.0010121999948751181, 1.7420520999876317]","[None, 'target']",90,0,90,0,178.19949670002097,,5,178.18496280000545,178.19949670002097,178.19949670002097,0.03967300002113916,179.92740600000252,"[np.float64(-0.3611111111111111), np.float64(-0.1935185185185185)]","[np.float64(0.14074074074074075), np.float64(0.06111111111111111)]","[0, 0]","[0, 0]","[1, 1]","[0.0010121999948751181, 1.7420520999876317]","[None, 'target']",003,001,2025-09-30_20h21.25.668,Visual Search,,2025.1.1,59.81022216826589,2025-09-30 20h21.34.620850 +0530,
91,0,91,"[np.float64(-0.1935185185185185), np.float64(0.06944444444444445)]","[np.float64(0.06111111111111111), np.float64(-0.3611111111111111)]","[0, 0]","[0, 0]","[1, 1]","[0.0005116999964229763, 1.9117890000052284]","[None, 'target']",91,0,91,0,179.99756260000868,,10,179.97992740001064,179.99756260000868,179.99756260000868,0.05126910001854412,181.89178080001147,"[np.float64(-0.1935185185185185), np.float64(0.06944444444444445)]","[np.float64(0.06111111111111111), np.float64(-0.3611111111111111)]","[0, 0]","[0, 0]","[1, 1]","[0.0005116999964229763, 1.9117890000052284]","[None, 'target']",003,001,2025-09-30_20h21.25.668,Visual Search,,2025.1.1,59.81022216826589,2025-09-30 20h21.34.620850 +0530,
92,0,92,"[np.float64(0.06944444444444445), np.float64(0.2361111111111111)]","[np.float64(-0.3611111111111111), np.float64(-0.35555555555555557)]","[0, 0]","[0, 0]","[1, 1]","[0.0007934999885037541, 1.9855458000092767]","[None, 'target']",92,0,92,0,181.94071350002196,,10,181.92354700001306,181.94071350002196,181.94071350002196,0.031582600000547245,183.9091873000143,"[np.float64(0.06944444444444445), np.float64(0.2361111111111111)]","[np.float64(-0.3611111111111111), np.float64(-0.35555555555555557)]","[0, 0]","[0, 0]","[1, 1]","[0.0007934999885037541, 1.9855458000092767]","[None, 'target']",003,001,2025-09-30_20h21.25.668,Visual Search,,2025.1.1,59.81022216826589,2025-09-30 20h21.34.620850 +0530,
93,0,93,"[np.float64(0.2361111111111111), np.float64(-0.44722222222222224)]","[np.float64(-0.35555555555555557), np.float64(-0.05555555555555555)]","[0, 0]","[0, 0]","[1, 1]","[0.0006753999914508313, 2.3979048999899533]","[None, 'target']",93,0,93,0,183.96347100002458,,10,183.94476770001347,183.96347100002458,183.96347100002458,0.03524780002771877,186.34284590001334,"[np.float64(0.2361111111111111), np.float64(-0.44722222222222224)]","[np.float64(-0.35555555555555557), np.float64(-0.05555555555555555)]","[0, 0]","[0, 0]","[1, 1]","[0.0006753999914508313, 2.3979048999899533]","[None, 'target']",003,001,2025-09-30_20h21.25.668,Visual Search,,2025.1.1,59.81022216826589,2025-09-30 20h21.34.620850 +0530,
94,0,94,"[np.float64(-0.44722222222222224), np.float64(-0.2361111111111111)]","[np.float64(-0.05555555555555555), np.float64(-0.31851851851851853)]","[0, 0]","[0, 0]","[1, 1]","[0.000679599994327873, 1.9171099000086542]","[None, 'target']",94,0,94,0,186.4086709000112,,10,186.39259490001132,186.4086709000112,186.4086709000112,0.04925189999630675,188.3099968000024,"[np.float64(-0.44722222222222224), np.float64(-0.2361111111111111)]","[np.float64(-0.05555555555555555), np.float64(-0.31851851851851853)]","[0, 0]","[0, 0]","[1, 1]","[0.000679599994327873, 1.9171099000086542]","[None, 'target']",003,001,2025-09-30_20h21.25.668,Visual Search,,2025.1.1,59.81022216826589,2025-09-30 20h21.34.620850 +0530,
95,0,95,"[np.float64(-0.2361111111111111), np.float64(-0.49444444444444446)]","[np.float64(-0.31851851851851853), np.float64(-0.008333333333333333)]","[0, 0]","[0, 0]","[1, 1]","[0.0022603999823331833, 1.5530475999985356]","[None, 'target']",95,0,95,0,188.37138750002487,,5,188.3562892000191,188.37138750002487,188.37138750002487,0.04514439997728914,189.90952480002306,"[np.float64(-0.2361111111111111), np.float64(-0.49444444444444446)]","[np.float64(-0.31851851851851853), np.float64(-0.008333333333333333)]","[0, 0]","[0, 0]","[1, 1]","[0.0022603999823331833, 1.5530475999985356]","[None, 'target']",003,001,2025-09-30_20h21.25.668,Visual Search,,2025.1.1,59.81022216826589,2025-09-30 20h21.34.620850 +0530,
96,0,96,[np.float64(-0.028703703703703703)],[np.float64(-0.3416666666666667)],[0],[0],[1],[1.6101228000188712],['target'],96,0,96,0,189.95805620000465,,5,189.94819610001286,189.95805620000465,189.95805620000465,0.03813820000505075,191.55852010002127,[np.float64(-0.028703703703703703)],[np.float64(-0.3416666666666667)],[0],[0],[1],[1.6101228000188712],['target'],003,001,2025-09-30_20h21.25.668,Visual Search,,2025.1.1,59.81022216826589,2025-09-30 20h21.34.620850 +0530,
97,0,97,"[np.float64(-0.02962962962962963), np.float64(0.4527777777777778)]","[np.float64(-0.3416666666666667), np.float64(0.05185185185185185)]","[0, 0]","[0, 0]","[1, 1]","[0.0006742000114172697, 1.70608530001482]","[None, 'target']",97,0,97,0,191.61954880002304,,10,191.60288190000574,191.61954880002304,191.61954880002304,0.04383029998280108,193.3091006000177,"[np.float64(-0.02962962962962963), np.float64(0.4527777777777778)]","[np.float64(-0.3416666666666667), np.float64(0.05185185185185185)]","[0, 0]","[0, 0]","[1, 1]","[0.0006742000114172697, 1.70608530001482]","[None, 'target']",003,001,2025-09-30_20h21.25.668,Visual Search,,2025.1.1,59.81022216826589,2025-09-30 20h21.34.620850 +0530,
98,0,98,"[np.float64(0.4527777777777778), np.float64(-0.36666666666666664)]","[np.float64(0.05185185185185185), np.float64(0.19444444444444445)]","[0, 0]","[0, 0]","[1, 1]","[0.001037300011375919, 1.8582559000060428]","[None, 'target']",98,0,98,0,193.36236960001406,,5,193.34936950000701,193.36236960001406,193.36236960001406,0.03987869998672977,195.20784790001926,"[np.float64(0.4527777777777778), np.float64(-0.36666666666666664)]","[np.float64(0.05185185185185185), np.float64(0.19444444444444445)]","[0, 0]","[0, 0]","[1, 1]","[0.001037300011375919, 1.8582559000060428]","[None, 'target']",003,001,2025-09-30_20h21.25.668,Visual Search,,2025.1.1,59.81022216826589,2025-09-30 20h21.34.620850 +0530,
99,0,99,"[np.float64(-0.36666666666666664), np.float64(0.48148148148148145)]","[np.float64(0.19444444444444445), np.float64(0.06018518518518518)]","[0, 0]","[0, 0]","[1, 1]","[0.0006271000020205975, 2.4209811000037007]","[None, 'target']",99,0,99,0,195.27059960001498,,10,195.25333200002206,195.27059960001498,195.27059960001498,0.04483290002099238,197.67438400001265,"[np.float64(-0.36666666666666664), np.float64(0.48148148148148145)]","[np.float64(0.19444444444444445), np.float64(0.06018518518518518)]","[0, 0]","[0, 0]","[1, 1]","[0.0006271000020205975, 2.4209811000037007]","[None, 'target']",003,001,2025-09-30_20h21.25.668,Visual Search,,2025.1.1,59.81022216826589,2025-09-30 20h21.34.620850 +0530,
100,0,100,"[np.float64(0.48055555555555557), np.float64(0.3138888888888889)]","[np.float64(0.06018518518518518), np.float64(-0.48333333333333334)]","[0, 0]","[0, 0]","[1, 1]","[0.0007922000077087432, 1.7834568000107538]","[None, 'target']",100,0,100,0,197.7249470000097,,10,197.7080249999999,197.7249470000097,197.7249470000097,0.03342780002276413,199.49165290000383,"[np.float64(0.48055555555555557), np.float64(0.3138888888888889)]","[np.float64(0.06018518518518518), np.float64(-0.48333333333333334)]","[0, 0]","[0, 0]","[1, 1]","[0.0007922000077087432, 1.7834568000107538]","[None, 'target']",003,001,2025-09-30_20h21.25.668,Visual Search,,2025.1.1,59.81022216826589,2025-09-30 20h21.34.620850 +0530,
101,0,101,"[np.float64(0.3138888888888889), np.float64(-0.32314814814814813)]","[np.float64(-0.48333333333333334), np.float64(-0.36203703703703705)]","[0, 0]","[0, 0]","[1, 1]","[0.0011711999832186848, 1.6559124999912456]","[None, 'target']",101,0,101,0,199.5488394999993,,5,199.53665310001816,199.5488394999993,199.5488394999993,0.04455489999963902,201.19278610000038,"[np.float64(0.3138888888888889), np.float64(-0.32314814814814813)]","[np.float64(-0.48333333333333334), np.float64(-0.36203703703703705)]","[0, 0]","[0, 0]","[1, 1]","[0.0011711999832186848, 1.6559124999912456]","[None, 'target']",003,001,2025-09-30_20h21.25.668,Visual Search,,2025.1.1,59.81022216826589,2025-09-30 20h21.34.620850 +0530,
102,0,102,"[np.float64(-0.32314814814814813), np.float64(0.24537037037037038)]","[np.float64(-0.36203703703703705), np.float64(0.003703703703703704)]","[0, 0]","[0, 0]","[1, 1]","[0.0006645999965257943, 1.9046227000071667]","[None, 'target']",102,0,102,0,201.24623509999947,,5,201.23533990001306,201.24623509999947,201.24623509999947,0.04199769999831915,203.14016510001966,"[np.float64(-0.32314814814814813), np.float64(0.24537037037037038)]","[np.float64(-0.36203703703703705), np.float64(0.003703703703703704)]","[0, 0]","[0, 0]","[1, 1]","[0.0006645999965257943, 1.9046227000071667]","[None, 'target']",003,001,2025-09-30_20h21.25.668,Visual Search,,2025.1.1,59.81022216826589,2025-09-30 20h21.34.620850 +0530,
103,0,103,[np.float64(-0.31296296296296294)],[np.float64(0.03518518518518519)],[0],[0],[1],[1.496245699992869],['target'],103,0,103,0,203.19610530001228,,10,203.17976560001262,203.19610530001228,203.19610530001228,0.03904719999991357,204.67612660001032,[np.float64(-0.31296296296296294)],[np.float64(0.03518518518518519)],[0],[0],[1],[1.496245699992869],['target'],003,001,2025-09-30_20h21.25.668,Visual Search,,2025.1.1,59.81022216826589,2025-09-30 20h21.34.620850 +0530,
104,0,104,"[np.float64(-0.31296296296296294), np.float64(-0.15555555555555556)]","[np.float64(0.03518518518518519), np.float64(-0.43148148148148147)]","[0, 0]","[0, 0]","[1, 1]","[0.0010030999837908894, 3.279133500007447]","[None, 'target']",104,0,104,0,204.72511320002377,,5,204.71288320000167,204.72511320002377,204.72511320002377,0.03641030000289902,207.99224680001498,"[np.float64(-0.31296296296296294), np.float64(-0.15555555555555556)]","[np.float64(0.03518518518518519), np.float64(-0.43148148148148147)]","[0, 0]","[0, 0]","[1, 1]","[0.0010030999837908894, 3.279133500007447]","[None, 'target']",003,001,2025-09-30_20h21.25.668,Visual Search,,2025.1.1,59.81022216826589,2025-09-30 20h21.34.620850 +0530,
105,0,105,[np.float64(-0.37407407407407406)],[np.float64(0.17777777777777778)],[0],[0],[1],[2.5210746999946423],['target'],105,0,105,0,208.04451420000987,,5,208.0347961000225,208.04451420000987,208.04451420000987,0.041875499999150634,210.55600660000346,[np.float64(-0.37407407407407406)],[np.float64(0.17777777777777778)],[0],[0],[1],[2.5210746999946423],['target'],003,001,2025-09-30_20h21.25.668,Visual Search,,2025.1.1,59.81022216826589,2025-09-30 20h21.34.620850 +0530,
106,0,106,"[np.float64(-0.37407407407407406), np.float64(-0.26666666666666666)]","[np.float64(0.17777777777777778), np.float64(0.06574074074074074)]","[0, 0]","[0, 0]","[1, 1]","[0.0009679000067990273, 1.2246813000238035]","[None, 'target']",106,0,106,0,210.5984684000141,,5,210.58262240001932,210.5984684000141,210.5984684000141,0.02635329999611713,211.80751170002623,"[np.float64(-0.37407407407407406), np.float64(-0.26666666666666666)]","[np.float64(0.17777777777777778), np.float64(0.06574074074074074)]","[0, 0]","[0, 0]","[1, 1]","[0.0009679000067990273, 1.2246813000238035]","[None, 'target']",003,001,2025-09-30_20h21.25.668,Visual Search,,2025.1.1,59.81022216826589,2025-09-30 20h21.34.620850 +0530,
107,0,107,[np.float64(-0.030555555555555555)],[np.float64(0.19444444444444445)],[0],[0],[1],[1.310855799994897],['target'],107,0,107,0,211.84055350002018,,5,211.83066500001587,211.84055350002018,211.84055350002018,0.022162599983857945,213.14167420001468,[np.float64(-0.030555555555555555)],[np.float64(0.19444444444444445)],[0],[0],[1],[1.310855799994897],['target'],003,001,2025-09-30_20h21.25.668,Visual Search,,2025.1.1,59.81022216826589,2025-09-30 20h21.34.620850 +0530,
108,0,108,[np.float64(-0.016666666666666666)],[np.float64(-0.003703703703703704)],[0],[0],[1],[1.2524909999920055],['target'],108,0,108,0,213.20496030000504,,10,213.18978130002506,213.20496030000504,213.20496030000504,0.04767030000220984,214.44268300000113,[np.float64(-0.016666666666666666)],[np.float64(-0.003703703703703704)],[0],[0],[1],[1.2524909999920055],['target'],003,001,2025-09-30_20h21.25.668,Visual Search,,2025.1.1,59.81022216826589,2025-09-30 20h21.34.620850 +0530,
109,0,109,[np.float64(0.3138888888888889)],[np.float64(0.23981481481481481)],[0],[0],[1],[1.3934900999884121],['target'],109,0,109,0,214.49095560002024,,5,214.48028620000696,214.49095560002024,214.49095560002024,0.03646680002566427,215.87390760000562,[np.float64(0.3138888888888889)],[np.float64(0.23981481481481481)],[0],[0],[1],[1.3934900999884121],['target'],003,001,2025-09-30_20h21.25.668,Visual Search,,2025.1.1,59.81022216826589,2025-09-30 20h21.34.620850 +0530,
110,0,110,"[np.float64(0.31296296296296294), np.float64(0.34629629629629627)]","[np.float64(0.23981481481481481), np.float64(0.4074074074074074)]","[0, 0]","[0, 0]","[1, 1]","[0.0006239000067580491, 1.513990700012073]","[None, 'target']",110,0,110,0,215.94244520002394,,10,215.9243435000244,215.94244520002394,215.94244520002394,0.05008879999513738,217.43841430000612,"[np.float64(0.31296296296296294), np.float64(0.34629629629629627)]","[np.float64(0.23981481481481481), np.float64(0.4074074074074074)]","[0, 0]","[0, 0]","[1, 1]","[0.0006239000067580491, 1.513990700012073]","[None, 'target']",003,001,2025-09-30_20h21.25.668,Visual Search,,2025.1.1,59.81022216826589,2025-09-30 20h21.34.620850 +0530,
111,0,111,"[np.float64(0.34629629629629627), np.float64(0.3037037037037037)]","[np.float64(0.4074074074074074), np.float64(0.06111111111111111)]","[0, 0]","[0, 0]","[1, 1]","[0.0011248999799136072, 1.463446899986593]","[None, 'target']",111,0,111,0,217.47047090000706,,5,217.45893150000484,217.47047090000706,217.47047090000706,0.020322700001997873,218.9227971000073,"[np.float64(0.34629629629629627), np.float64(0.3037037037037037)]","[np.float64(0.4074074074074074), np.float64(0.06111111111111111)]","[0, 0]","[0, 0]","[1, 1]","[0.0011248999799136072, 1.463446899986593]","[None, 'target']",003,001,2025-09-30_20h21.25.668,Visual Search,,2025.1.1,59.81022216826589,2025-09-30 20h21.34.620850 +0530,
112,0,112,"[np.float64(0.3037037037037037), np.float64(-0.3787037037037037)]","[np.float64(0.06111111111111111), np.float64(0.017592592592592594)]","[0, 0]","[0, 0]","[1, 1]","[0.0005421999958343804, 1.708922599995276]","[None, 'target']",112,0,112,0,218.99583900001016,,10,218.9789909000101,218.99583900001016,218.99583900001016,0.055010000010952353,220.68797260001884,"[np.float64(0.3037037037037037), np.float64(-0.3787037037037037)]","[np.float64(0.06111111111111111), np.float64(0.017592592592592594)]","[0, 0]","[0, 0]","[1, 1]","[0.0005421999958343804, 1.708922599995276]","[None, 'target']",003,001,2025-09-30_20h21.25.668,Visual Search,,2025.1.1,59.81022216826589,2025-09-30 20h21.34.620850 +0530,
113,0,113,"[np.float64(-0.3787037037037037), np.float64(0.36018518518518516)]","[np.float64(0.017592592592592594), np.float64(0.4203703703703704)]","[0, 0]","[0, 0]","[1, 1]","[0.0010989000147674233, 1.4015416000038385]","[None, 'target']",113,0,113,0,220.73655440000584,,10,220.71964110000408,220.73655440000584,220.73655440000584,0.03151980001712218,222.12136790002114,"[np.float64(-0.3787037037037037), np.float64(0.36018518518518516)]","[np.float64(0.017592592592592594), np.float64(0.4203703703703704)]","[0, 0]","[0, 0]","[1, 1]","[0.0010989000147674233, 1.4015416000038385]","[None, 'target']",003,001,2025-09-30_20h21.25.668,Visual Search,,2025.1.1,59.81022216826589,2025-09-30 20h21.34.620850 +0530,
114,0,114,"[np.float64(0.36018518518518516), np.float64(-0.2972222222222222)]","[np.float64(0.4203703703703704), np.float64(0.0824074074074074)]","[0, 0]","[0, 0]","[1, 1]","[0.0006125000072643161, 1.9726841000083368]","[None, 'target']",114,0,114,0,222.18217040001764,,10,222.16456330000074,222.18217040001764,222.18217040001764,0.042487200000323355,224.13734210000257,"[np.float64(0.36018518518518516), np.float64(-0.2972222222222222)]","[np.float64(0.4203703703703704), np.float64(0.0824074074074074)]","[0, 0]","[0, 0]","[1, 1]","[0.0006125000072643161, 1.9726841000083368]","[None, 'target']",003,001,2025-09-30_20h21.25.668,Visual Search,,2025.1.1,59.81022216826589,2025-09-30 20h21.34.620850 +0530,
115,0,115,"[np.float64(-0.2972222222222222), np.float64(-0.046296296296296294)]","[np.float64(0.0824074074074074), np.float64(-0.4787037037037037)]","[0, 0]","[0, 0]","[1, 1]","[0.000659500015899539, 1.8989169000124093]","[None, 'target']",115,0,115,0,224.16744180000387,,5,224.1561706000066,224.16744180000387,224.16744180000387,0.018559199990704656,226.05547670001397,"[np.float64(-0.2972222222222222), np.float64(-0.046296296296296294)]","[np.float64(0.0824074074074074), np.float64(-0.4787037037037037)]","[0, 0]","[0, 0]","[1, 1]","[0.000659500015899539, 1.8989169000124093]","[None, 'target']",003,001,2025-09-30_20h21.25.668,Visual Search,,2025.1.1,59.81022216826589,2025-09-30 20h21.34.620850 +0530,
116,0,116,[np.float64(0.1388888888888889)],[np.float64(-0.10277777777777777)],[0],[0],[1],[1.7308146000141278],['target'],116,0,116,0,226.12245090000215,,10,226.10661970000365,226.12245090000215,226.12245090000215,0.050000400020508096,227.83759420001297,[np.float64(0.1388888888888889)],[np.float64(-0.10277777777777777)],[0],[0],[1],[1.7308146000141278],['target'],003,001,2025-09-30_20h21.25.668,Visual Search,,2025.1.1,59.81022216826589,2025-09-30 20h21.34.620850 +0530,
117,0,117,[np.float64(-0.29814814814814816)],[np.float64(0.11481481481481481)],[0],[0],[1],[1.4063492999994196],['target'],117,0,117,0,227.89736080000876,,10,227.88131980001344,227.89736080000876,227.89736080000876,0.0433439000044018,229.28772700001718,[np.float64(-0.29814814814814816)],[np.float64(0.11481481481481481)],[0],[0],[1],[1.4063492999994196],['target'],003,001,2025-09-30_20h21.25.668,Visual Search,,2025.1.1,59.81022216826589,2025-09-30 20h21.34.620850 +0530,
118,0,118,"[np.float64(-0.29814814814814816), np.float64(-0.1537037037037037)]","[np.float64(0.11481481481481481), np.float64(-0.3175925925925926)]","[0, 0]","[0, 0]","[1, 1]","[0.0005920999974478036, 1.584522699995432]","[None, 'target']",118,0,118,0,229.33545589999994,,10,229.31896150001558,229.33545589999994,229.33545589999994,0.031067199975950643,230.9035854000249,"[np.float64(-0.29814814814814816), np.float64(-0.1537037037037037)]","[np.float64(0.11481481481481481), np.float64(-0.3175925925925926)]","[0, 0]","[0, 0]","[1, 1]","[0.0005920999974478036, 1.584522699995432]","[None, 'target']",003,001,2025-09-30_20h21.25.668,Visual Search,,2025.1.1,59.81022216826589,2025-09-30 20h21.34.620850 +0530,
119,0,119,"[np.float64(-0.1537037037037037), np.float64(-0.44351851851851853)]","[np.float64(-0.3175925925925926), np.float64(0.44351851851851853)]","[0, 0]","[0, 0]","[1, 1]","[0.0006772000051569194, 1.9509382999967784]","[None, 'target']",119,0,119,0,230.9323014000256,,5,230.92112050001742,230.9323014000256,230.9323014000256,0.01712580001913011,232.87230190000264,"[np.float64(-0.1537037037037037), np.float64(-0.44351851851851853)]","[np.float64(-0.3175925925925926), np.float64(0.44351851851851853)]","[0, 0]","[0, 0]","[1, 1]","[0.0006772000051569194, 1.9509382999967784]","[None, 'target']",003,001,2025-09-30_20h21.25.668,Visual Search,,2025.1.1,59.81022216826589,2025-09-30 20h21.34.620850 +0530,
120,0,120,[np.float64(-0.15648148148148147)],[np.float64(-0.42962962962962964)],[0],[0],[1],[1.7856486999953631],['target'],120,0,120,0,232.91625810001278,,5,232.9063900000183,232.91625810001278,232.91625810001278,0.03341059997910634,234.69227310002316,[np.float64(-0.15648148148148147)],[np.float64(-0.42962962962962964)],[0],[0],[1],[1.7856486999953631],['target'],003,001,2025-09-30_20h21.25.668,Visual Search,,2025.1.1,59.81022216826589,2025-09-30 20h21.34.620850 +0530,
121,0,121,[np.float64(0.1925925925925926)],[np.float64(0.2722222222222222)],[0],[0],[1],[1.9735616999969352],['target'],121,0,121,0,234.73979590000818,,5,234.72935460001463,234.73979590000818,234.73979590000818,0.03629680001176894,236.703012700018,[np.float64(0.1925925925925926)],[np.float64(0.2722222222222222)],[0],[0],[1],[1.9735616999969352],['target'],003,001,2025-09-30_20h21.25.668,Visual Search,,2025.1.1,59.81022216826589,2025-09-30 20h21.34.620850 +0530,
122,0,122,[np.float64(-0.23981481481481481)],[np.float64(0.11851851851851852)],[0],[0],[1],[1.397357700014254],['target'],122,0,122,0,236.75432269999874,,10,236.7390585000103,236.75432269999874,236.75432269999874,0.035836099996231496,238.13656620000256,[np.float64(-0.23981481481481481)],[np.float64(0.11851851851851852)],[0],[0],[1],[1.397357700014254],['target'],003,001,2025-09-30_20h21.25.668,Visual Search,,2025.1.1,59.81022216826589,2025-09-30 20h21.34.620850 +0530,
123,0,123,[np.float64(0.49444444444444446)],[np.float64(0.24166666666666667)],[0],[0],[1],[1.6768499000172596],['target'],123,0,123,0,238.19677140002022,,10,238.1800199999998,238.19677140002022,238.19677140002022,0.04305139998905361,239.85711460001767,[np.float64(0.49444444444444446)],[np.float64(0.24166666666666667)],[0],[0],[1],[1.6768499000172596],['target'],003,001,2025-09-30_20h21.25.668,Visual Search,,2025.1.1,59.81022216826589,2025-09-30 20h21.34.620850 +0530,
124,0,124,"[np.float64(0.49444444444444446), np.float64(-0.2953703703703704)]","[np.float64(0.24166666666666667), np.float64(-0.3453703703703704)]","[0, 0]","[0, 0]","[1, 1]","[0.0009176000021398067, 2.4721203000226524]","[None, 'target']",124,0,124,0,239.9313995000266,,10,239.9136708000151,239.9313995000266,239.9313995000266,0.05578969998168759,242.38597510001273,"[np.float64(0.49444444444444446), np.float64(-0.2953703703703704)]","[np.float64(0.24166666666666667), np.float64(-0.3453703703703704)]","[0, 0]","[0, 0]","[1, 1]","[0.0009176000021398067, 2.4721203000226524]","[None, 'target']",003,001,2025-09-30_20h21.25.668,Visual Search,,2025.1.1,59.81022216826589,2025-09-30 20h21.34.620850 +0530,
125,0,125,"[np.float64(-0.2953703703703704), np.float64(0.45925925925925926)]","[np.float64(-0.3453703703703704), np.float64(-0.28703703703703703)]","[0, 0]","[0, 0]","[1, 1]","[0.0007096000190358609, 2.1218404000101145]","[None, 'target']",125,0,125,0,242.44851030001882,,10,242.4314344000013,242.44851030001882,242.44851030001882,0.044639800005825236,244.55343880000873,"[np.float64(-0.2953703703703704), np.float64(0.45925925925925926)]","[np.float64(-0.3453703703703704), np.float64(-0.28703703703703703)]","[0, 0]","[0, 0]","[1, 1]","[0.0007096000190358609, 2.1218404000101145]","[None, 'target']",003,001,2025-09-30_20h21.25.668,Visual Search,,2025.1.1,59.81022216826589,2025-09-30 20h21.34.620850 +0530,
126,0,126,"[np.float64(0.45925925925925926), np.float64(0.19166666666666668)]","[np.float64(-0.28703703703703703), np.float64(-0.020370370370370372)]","[0, 0]","[0, 0]","[1, 1]","[0.0009664999961387366, 1.3468367999885231]","[None, 'target']",126,0,126,0,244.60008870001184,,5,244.58896580000874,244.60008870001184,244.60008870001184,0.03485019999789074,245.9359264000086,"[np.float64(0.45925925925925926), np.float64(0.19166666666666668)]","[np.float64(-0.28703703703703703), np.float64(-0.020370370370370372)]","[0, 0]","[0, 0]","[1, 1]","[0.0009664999961387366, 1.3468367999885231]","[None, 'target']",003,001,2025-09-30_20h21.25.668,Visual Search,,2025.1.1,59.81022216826589,2025-09-30 20h21.34.620850 +0530,
127,0,127,"[np.float64(0.19166666666666668), np.float64(0.35648148148148145)]","[np.float64(-0.020370370370370372), np.float64(-0.17314814814814813)]","[0, 0]","[0, 0]","[1, 1]","[0.0008083999855443835, 1.3926633999799378]","[None, 'target']",127,0,127,0,245.9729028000147,,5,245.96154300001217,245.9729028000147,245.9729028000147,0.025178900017635897,247.35459670002456,"[np.float64(0.19166666666666668), np.float64(0.35648148148148145)]","[np.float64(-0.020370370370370372), np.float64(-0.17314814814814813)]","[0, 0]","[0, 0]","[1, 1]","[0.0008083999855443835, 1.3926633999799378]","[None, 'target']",003,001,2025-09-30_20h21.25.668,Visual Search,,2025.1.1,59.81022216826589,2025-09-30 20h21.34.620850 +0530,
128,0,128,"[np.float64(0.35648148148148145), np.float64(-0.3138888888888889)]","[np.float64(-0.17314814814814813), np.float64(-0.09074074074074075)]","[0, 0]","[0, 0]","[1, 1]","[0.001408000010997057, 1.5892034000135027]","[None, 'target']",128,0,128,0,247.41230490000453,,5,247.3981391999987,247.41230490000453,247.41230490000453,0.04241229998297058,248.98751450001146,"[np.float64(0.35648148148148145), np.float64(-0.3138888888888889)]","[np.float64(-0.17314814814814813), np.float64(-0.09074074074074075)]","[0, 0]","[0, 0]","[1, 1]","[0.001408000010997057, 1.5892034000135027]","[None, 'target']",003,001,2025-09-30_20h21.25.668,Visual Search,,2025.1.1,59.81022216826589,2025-09-30 20h21.34.620850 +0530,
129,0,129,"[np.float64(-0.3138888888888889), np.float64(0.2037037037037037)]","[np.float64(-0.09074074074074075), np.float64(-0.03518518518518519)]","[0, 0]","[0, 0]","[1, 1]","[0.0012575000000651926, 2.045966400008183]","[None, 'target']",129,0,129,0,249.05670149999787,,5,249.03928210001322,249.05670149999787,249.05670149999787,0.05126319997361861,251.08530580002116,"[np.float64(-0.3138888888888889), np.float64(0.2037037037037037)]","[np.float64(-0.09074074074074075), np.float64(-0.03518518518518519)]","[0, 0]","[0, 0]","[1, 1]","[0.0012575000000651926, 2.045966400008183]","[None, 'target']",003,001,2025-09-30_20h21.25.668,Visual Search,,2025.1.1,59.81022216826589,2025-09-30 20h21.34.620850 +0530,
130,0,130,"[np.float64(0.2037037037037037), np.float64(0.04537037037037037)]","[np.float64(-0.03518518518518519), np.float64(-0.1361111111111111)]","[0, 0]","[0, 0]","[1, 1]","[0.0005331000138539821, 1.150134600000456]","[None, 'target']",130,0,130,0,251.11400600001798,,5,251.10326290002558,251.11400600001798,251.11400600001798,0.01777340000262484,252.25363750001998,"[np.float64(0.2037037037037037), np.float64(0.04537037037037037)]","[np.float64(-0.03518518518518519), np.float64(-0.1361111111111111)]","[0, 0]","[0, 0]","[1, 1]","[0.0005331000138539821, 1.150134600000456]","[None, 'target']",003,001,2025-09-30_20h21.25.668,Visual Search,,2025.1.1,59.81022216826589,2025-09-30 20h21.34.620850 +0530,
131,0,131,"[np.float64(0.044444444444444446), np.float64(0.05092592592592592)]","[np.float64(-0.1361111111111111), np.float64(0.12314814814814815)]","[0, 0]","[0, 0]","[1, 1]","[0.0007424000068567693, 1.3266195000032894]","[None, 'target']",131,0,131,0,252.32533810002496,,10,252.30833250001888,252.32533810002496,252.32533810002496,0.05414520000340417,253.63501940001152,"[np.float64(0.044444444444444446), np.float64(0.05092592592592592)]","[np.float64(-0.1361111111111111), np.float64(0.12314814814814815)]","[0, 0]","[0, 0]","[1, 1]","[0.0007424000068567693, 1.3266195000032894]","[None, 'target']",003,001,2025-09-30_20h21.25.668,Visual Search,,2025.1.1,59.81022216826589,2025-09-30 20h21.34.620850 +0530,
132,0,132,"[np.float64(0.05092592592592592), np.float64(0.4083333333333333)]","[np.float64(0.12314814814814815), np.float64(-0.3824074074074074)]","[0, 0]","[0, 0]","[1, 1]","[0.0006814999796915799, 1.7861006000021007]","[None, 'target']",132,0,132,0,253.68231560001732,,10,253.66602560001775,253.68231560001732,253.68231560001732,0.030806199996732175,255.45224490002147,"[np.float64(0.05092592592592592), np.float64(0.4083333333333333)]","[np.float64(0.12314814814814815), np.float64(-0.3824074074074074)]","[0, 0]","[0, 0]","[1, 1]","[0.0006814999796915799, 1.7861006000021007]","[None, 'target']",003,001,2025-09-30_20h21.25.668,Visual Search,,2025.1.1,59.81022216826589,2025-09-30 20h21.34.620850 +0530,
133,0,133,"[np.float64(0.4083333333333333), np.float64(0.025)]","[np.float64(-0.3824074074074074), np.float64(0.20555555555555555)]","[0, 0]","[0, 0]","[1, 1]","[0.0007989000005181879, 1.7212981000193395]","[None, 'target']",133,0,133,0,255.49170610000147,,5,255.48093580000568,255.49170610000147,255.49170610000147,0.028324700018856674,257.2026366000064,"[np.float64(0.4083333333333333), np.float64(0.025)]","[np.float64(-0.3824074074074074), np.float64(0.20555555555555555)]","[0, 0]","[0, 0]","[1, 1]","[0.0007989000005181879, 1.7212981000193395]","[None, 'target']",003,001,2025-09-30_20h21.25.668,Visual Search,,2025.1.1,59.81022216826589,2025-09-30 20h21.34.620850 +0530,
134,0,134,[np.float64(0.3148148148148148)],[np.float64(-0.2490740740740741)],[0],[0],[1],[1.6180327000038233],['target'],134,0,134,0,257.24320080000325,,5,257.23315549999825,257.24320080000325,257.24320080000325,0.029404899978544563,258.8513346000109,[np.float64(0.3148148148148148)],[np.float64(-0.2490740740740741)],[0],[0],[1],[1.6180327000038233],['target'],003,001,2025-09-30_20h21.25.668,Visual Search,,2025.1.1,59.81022216826589,2025-09-30 20h21.34.620850 +0530,
135,0,135,[np.float64(-0.3990740740740741)],[np.float64(-0.462037037037037)],[0],[0],[1],[1.6292222999909427],['target'],135,0,135,0,258.92090080000344,,10,258.9045623000129,258.92090080000344,258.92090080000344,0.05288709999877028,260.5338678000262,[np.float64(-0.3990740740740741)],[np.float64(-0.462037037037037)],[0],[0],[1],[1.6292222999909427],['target'],003,001,2025-09-30_20h21.25.668,Visual Search,,2025.1.1,59.81022216826589,2025-09-30 20h21.34.620850 +0530,
136,0,136,[np.float64(0.009259259259259259)],[np.float64(-0.27685185185185185)],[0],[0],[1],[1.5208089999796357],['target'],136,0,136,0,260.56077440001536,,5,260.55085650002,260.56077440001536,260.56077440001536,0.016803300008177757,262.07192730001407,[np.float64(0.009259259259259259)],[np.float64(-0.27685185185185185)],[0],[0],[1],[1.5208089999796357],['target'],003,001,2025-09-30_20h21.25.668,Visual Search,,2025.1.1,59.81022216826589,2025-09-30 20h21.34.620850 +0530,
137,0,137,[np.float64(-0.21481481481481482)],[np.float64(-0.45185185185185184)],[0],[0],[1],[1.189198000007309],['target'],137,0,137,0,262.12653639999917,,10,262.1112645000103,262.12653639999917,262.12653639999917,0.03872209999826737,263.3005305000115,[np.float64(-0.21481481481481482)],[np.float64(-0.45185185185185184)],[0],[0],[1],[1.189198000007309],['target'],003,001,2025-09-30_20h21.25.668,Visual Search,,2025.1.1,59.81022216826589,2025-09-30 20h21.34.620850 +0530,
138,0,138,"[np.float64(-0.21481481481481482), np.float64(0.24444444444444444)]","[np.float64(-0.45185185185185184), np.float64(-0.17314814814814813)]","[0, 0]","[0, 0]","[1, 1]","[0.00084889997378923, 1.6010237999726087]","[None, 'target']",138,0,138,0,263.3286391000147,,5,263.3181947999983,263.3286391000147,263.3286391000147,0.01748439998482354,264.9193559999985,"[np.float64(-0.21481481481481482), np.float64(0.24444444444444444)]","[np.float64(-0.45185185185185184), np.float64(-0.17314814814814813)]","[0, 0]","[0, 0]","[1, 1]","[0.00084889997378923, 1.6010237999726087]","[None, 'target']",003,001,2025-09-30_20h21.25.668,Visual Search,,2025.1.1,59.81022216826589,2025-09-30 20h21.34.620850 +0530,
139,0,139,"[np.float64(0.24444444444444444), np.float64(-0.24814814814814815)]","[np.float64(-0.17314814814814813), np.float64(0.21574074074074073)]","[0, 0]","[0, 0]","[1, 1]","[0.000588800001423806, 1.1784346000058576]","[None, 'target']",139,0,139,0,264.96731710000313,,5,264.9572506000113,264.96731710000313,264.96731710000313,0.03738510000403039,266.13585010002134,"[np.float64(0.24444444444444444), np.float64(-0.24814814814814815)]","[np.float64(-0.17314814814814813), np.float64(0.21574074074074073)]","[0, 0]","[0, 0]","[1, 1]","[0.000588800001423806, 1.1784346000058576]","[None, 'target']",003,001,2025-09-30_20h21.25.668,Visual Search,,2025.1.1,59.81022216826589,2025-09-30 20h21.34.620850 +0530,
140,0,140,"[np.float64(-0.24814814814814815), np.float64(-0.3990740740740741)]","[np.float64(0.21574074074074073), np.float64(-0.08703703703703704)]","[0, 0]","[0, 0]","[1, 1]","[0.0005477000086102635, 1.1075819000252523]","[None, 'target']",140,0,140,0,266.1905470000056,,10,266.17545640000026,266.1905470000056,266.1905470000056,0.039224899985129014,267.28314450001926,"[np.float64(-0.24814814814814815), np.float64(-0.3990740740740741)]","[np.float64(0.21574074074074073), np.float64(-0.08703703703703704)]","[0, 0]","[0, 0]","[1, 1]","[0.0005477000086102635, 1.1075819000252523]","[None, 'target']",003,001,2025-09-30_20h21.25.668,Visual Search,,2025.1.1,59.81022216826589,2025-09-30 20h21.34.620850 +0530,
141,0,141,"[np.float64(-0.3990740740740741), np.float64(0.05925925925925926)]","[np.float64(-0.08703703703703704), np.float64(0.03981481481481482)]","[0, 0]","[0, 0]","[1, 1]","[0.0006662000087089837, 1.2824012000055518]","[None, 'target']",141,0,141,0,267.33554100000765,,10,267.318391400011,267.33554100000765,267.33554100000765,0.034783000010065734,268.60093310000957,"[np.float64(-0.3990740740740741), np.float64(0.05925925925925926)]","[np.float64(-0.08703703703703704), np.float64(0.03981481481481482)]","[0, 0]","[0, 0]","[1, 1]","[0.0006662000087089837, 1.2824012000055518]","[None, 'target']",003,001,2025-09-30_20h21.25.668,Visual Search,,2025.1.1,59.81022216826589,2025-09-30 20h21.34.620850 +0530,
142,0,142,"[np.float64(0.05925925925925926), np.float64(-0.26296296296296295), np.float64(-0.2824074074074074)]","[np.float64(0.03981481481481482), np.float64(-0.3851851851851852), np.float64(-0.37222222222222223)]","[0, 0, 0]","[0, 0, 0]","[1, 1, 1]","[0.0005932000058237463, 1.2910939000139479, 2.3087384999962524]","[None, None, 'target']",142,0,142,0,268.63614790001884,,5,268.6260091000004,268.63614790001884,268.63614790001884,0.024522399995476007,270.9349899000081,"[np.float64(0.05925925925925926), np.float64(-0.26296296296296295), np.float64(-0.2824074074074074)]","[np.float64(0.03981481481481482), np.float64(-0.3851851851851852), np.float64(-0.37222222222222223)]","[0, 0, 0]","[0, 0, 0]","[1, 1, 1]","[0.0005932000058237463, 1.2910939000139479, 2.3087384999962524]","[None, None, 'target']",003,001,2025-09-30_20h21.25.668,Visual Search,,2025.1.1,59.81022216826589,2025-09-30 20h21.34.620850 +0530,
143,0,143,"[np.float64(-0.2824074074074074), np.float64(0.09351851851851851)]","[np.float64(-0.37222222222222223), np.float64(-0.19074074074074074)]","[0, 0]","[0, 0]","[1, 1]","[0.001348399993730709, 1.2775907999894116]","[None, 'target']",143,0,143,0,270.98677610000595,,5,270.97222770002554,270.98677610000595,270.98677610000595,0.0364877000101842,272.2498789000092,"[np.float64(-0.2824074074074074), np.float64(0.09351851851851851)]","[np.float64(-0.37222222222222223), np.float64(-0.19074074074074074)]","[0, 0]","[0, 0]","[1, 1]","[0.001348399993730709, 1.2775907999894116]","[None, 'target']",003,001,2025-09-30_20h21.25.668,Visual Search,,2025.1.1,59.81022216826589,2025-09-30 20h21.34.620850 +0530,
144,0,144,"[np.float64(0.09351851851851851), np.float64(0.19907407407407407)]","[np.float64(-0.19074074074074074), np.float64(-0.3509259259259259)]","[0, 0]","[0, 0]","[1, 1]","[0.0005271999980323017, 1.793050599982962]","[None, 'target']",144,0,144,0,272.3054499000136,,10,272.2893210000184,272.3054499000136,272.3054499000136,0.039026099984766915,274.0824382000137,"[np.float64(0.09351851851851851), np.float64(0.19907407407407407)]","[np.float64(-0.19074074074074074), np.float64(-0.3509259259259259)]","[0, 0]","[0, 0]","[1, 1]","[0.0005271999980323017, 1.793050599982962]","[None, 'target']",003,001,2025-09-30_20h21.25.668,Visual Search,,2025.1.1,59.81022216826589,2025-09-30 20h21.34.620850 +0530,
145,0,145,"[np.float64(0.19907407407407407), np.float64(-0.07222222222222222)]","[np.float64(-0.3509259259259259), np.float64(0.3962962962962963)]","[0, 0]","[0, 0]","[1, 1]","[0.0006789000181015581, 1.8197094000061043]","[None, 'target']",145,0,145,0,274.10571309999796,,5,274.0964348000125,274.10571309999796,274.10571309999796,0.013749700010521337,275.91628200002015,"[np.float64(0.19907407407407407), np.float64(-0.07222222222222222)]","[np.float64(-0.3509259259259259), np.float64(0.3962962962962963)]","[0, 0]","[0, 0]","[1, 1]","[0.0006789000181015581, 1.8197094000061043]","[None, 'target']",003,001,2025-09-30_20h21.25.668,Visual Search,,2025.1.1,59.81022216826589,2025-09-30 20h21.34.620850 +0530,
146,0,146,"[np.float64(-0.07222222222222222), np.float64(0.39537037037037037)]","[np.float64(0.3962962962962963), np.float64(-0.44537037037037036)]","[0, 0]","[0, 0]","[1, 1]","[0.0016279999981634319, 1.9605807999905664]","[None, 'target']",146,0,146,0,275.9716297000123,,5,275.9563801000186,275.9716297000123,275.9716297000123,0.03966370000853203,277.91718310001306,"[np.float64(-0.07222222222222222), np.float64(0.39537037037037037)]","[np.float64(0.3962962962962963), np.float64(-0.44537037037037036)]","[0, 0]","[0, 0]","[1, 1]","[0.0016279999981634319, 1.9605807999905664]","[None, 'target']",003,001,2025-09-30_20h21.25.668,Visual Search,,2025.1.1,59.81022216826589,2025-09-30 20h21.34.620850 +0530,
147,0,147,"[np.float64(0.39537037037037037), np.float64(-0.17037037037037037)]","[np.float64(-0.4444444444444444), np.float64(0.35648148148148145)]","[0, 0]","[0, 0]","[1, 1]","[0.0005883999983780086, 1.6995798000134528]","[None, 'target']",147,0,147,0,277.9614731000038,,5,277.95088920000126,277.9614731000038,277.9614731000038,0.03288449998944998,279.65084510002634,"[np.float64(0.39537037037037037), np.float64(-0.17037037037037037)]","[np.float64(-0.4444444444444444), np.float64(0.35648148148148145)]","[0, 0]","[0, 0]","[1, 1]","[0.0005883999983780086, 1.6995798000134528]","[None, 'target']",003,001,2025-09-30_20h21.25.668,Visual Search,,2025.1.1,59.81022216826589,2025-09-30 20h21.34.620850 +0530,
148,0,148,[np.float64(-0.35555555555555557)],[np.float64(0.2351851851851852)],[0],[0],[1],[1.0839360999816563],['target'],148,0,148,0,279.73044410001603,,10,279.71510729999864,279.73044410001603,279.73044410001603,0.06320010000490583,280.7991344000038,[np.float64(-0.35555555555555557)],[np.float64(0.2351851851851852)],[0],[0],[1],[1.0839360999816563],['target'],003,001,2025-09-30_20h21.25.668,Visual Search,,2025.1.1,59.81022216826589,2025-09-30 20h21.34.620850 +0530,
149,0,149,"[np.float64(-0.35462962962962963), np.float64(0.12222222222222222)]","[np.float64(0.2351851851851852), np.float64(-0.21944444444444444)]","[0, 0]","[0, 0]","[1, 1]","[0.0007903999940026551, 1.612732399982633]","[None, 'target']",149,0,149,0,280.85496620001504,,10,280.8366154000105,280.85496620001504,280.85496620001504,0.03720449999673292,282.44945670000743,"[np.float64(-0.35462962962962963), np.float64(0.12222222222222222)]","[np.float64(0.2351851851851852), np.float64(-0.21944444444444444)]","[0, 0]","[0, 0]","[1, 1]","[0.0007903999940026551, 1.612732399982633]","[None, 'target']",003,001,2025-09-30_20h21.25.668,Visual Search,,2025.1.1,59.81022216826589,2025-09-30 20h21.34.620850 +0530,
150,0,150,"[np.float64(0.12222222222222222), np.float64(0.3453703703703704)]","[np.float64(-0.21944444444444444), np.float64(-0.3398148148148148)]","[0, 0]","[0, 0]","[1, 1]","[0.0008094000222627074, 1.703140199999325]","[None, 'target']",150,0,150,0,282.49044380002306,,5,282.4792408000212,282.49044380002306,282.49044380002306,0.029450200003338978,284.1825223000196,"[np.float64(0.12222222222222222), np.float64(0.3453703703703704)]","[np.float64(-0.21944444444444444), np.float64(-0.3398148148148148)]","[0, 0]","[0, 0]","[1, 1]","[0.0008094000222627074, 1.703140199999325]","[None, 'target']",003,001,2025-09-30_20h21.25.668,Visual Search,,2025.1.1,59.81022216826589,2025-09-30 20h21.34.620850 +0530,
151,0,151,"[np.float64(0.3453703703703704), np.float64(-0.3574074074074074)]","[np.float64(-0.3398148148148148), np.float64(0.4009259259259259)]","[0, 0]","[0, 0]","[1, 1]","[0.000691299996105954, 1.4119050000153948]","[None, 'target']",151,0,151,0,284.25781619999907,,10,284.2370360000059,284.25781619999907,284.25781619999907,0.05409369998960756,285.6490626000159,"[np.float64(0.3453703703703704), np.float64(-0.3574074074074074)]","[np.float64(-0.3398148148148148), np.float64(0.4009259259259259)]","[0, 0]","[0, 0]","[1, 1]","[0.000691299996105954, 1.4119050000153948]","[None, 'target']",003,001,2025-09-30_20h21.25.668,Visual Search,,2025.1.1,59.81022216826589,2025-09-30 20h21.34.620850 +0530,
152,0,152,"[np.float64(-0.3574074074074074), np.float64(0.29259259259259257)]","[np.float64(0.4009259259259259), np.float64(-0.07962962962962963)]","[0, 0]","[0, 0]","[1, 1]","[0.0006595999875571579, 1.9988622999808285]","[None, 'target']",152,0,152,0,285.7179927000252,,10,285.70111300001736,285.7179927000252,285.7179927000252,0.05169000002206303,287.700052900007,"[np.float64(-0.3574074074074074), np.float64(0.29259259259259257)]","[np.float64(0.4009259259259259), np.float64(-0.07962962962962963)]","[0, 0]","[0, 0]","[1, 1]","[0.0006595999875571579, 1.9988622999808285]","[None, 'target']",003,001,2025-09-30_20h21.25.668,Visual Search,,2025.1.1,59.81022216826589,2025-09-30 20h21.34.620850 +0530,
