thisN,thisTrialN,thisRepN,mouse.x,mouse.y,mouse.leftButton,mouse.midButton,mouse.rightButton,mouse.time,mouse.clicked_name,trials.thisRepN,trials.thisTrialN,trials.thisN,trials.thisIndex,thisRow.t,notes,num_distr,trial.started,Fixation.started,target.started,mouse.started,trial.stopped,trials.mouse.x,trials.mouse.y,trials.mouse.leftButton,trials.mouse.midButton,trials.mouse.rightButton,trials.mouse.time,trials.mouse.clicked_name,participant,session,date,expName,expVersion,psychopyVersion,frameRate,expStart,
0,0,0,[np.float64(0.43333333333333335)],[np.float64(-0.4787037037037037)],[0],[0],[1],[8.482010900013847],['target'],0,0,0,0,0.049544100009370595,,10,0.03476989999762736,0.049544100009370595,0.049544100009370595,0.03479439998045564,8.516901700000744,[np.float64(0.43333333333333335)],[np.float64(-0.4787037037037037)],[0],[0],[1],[8.482010900013847],['target'],004,001,2025-09-30_20h28.27.084,Visual Search,,2025.1.1,59.99080940785551,2025-09-30 20h28.36.220843 +0530,
1,0,1,"[np.float64(0.43333333333333335), np.float64(-0.07962962962962963)]","[np.float64(-0.4787037037037037), np.float64(-0.03518518518518519)]","[0, 0]","[0, 0]","[1, 1]","[0.000661700003547594, 3.917302699992433]","[None, 'target']",1,0,1,0,8.564758099993924,,10,8.551691000000574,8.564758099993924,8.564758099993924,0.034388800006126985,12.469131399993785,"[np.float64(0.43333333333333335), np.float64(-0.07962962962962963)]","[np.float64(-0.4787037037037037), np.float64(-0.03518518518518519)]","[0, 0]","[0, 0]","[1, 1]","[0.000661700003547594, 3.917302699992433]","[None, 'target']",004,001,2025-09-30_20h28.27.084,Visual Search,,2025.1.1,59.99080940785551,2025-09-30 20h28.36.220843 +0530,
2,0,2,"[np.float64(-0.07962962962962963), np.float64(0.1361111111111111)]","[np.float64(-0.03518518518518519), np.float64(0.32037037037037036)]","[0, 0]","[0, 0]","[1, 1]","[0.0006968000088818371, 3.1555635999829974]","[None, 'target']",2,0,2,0,12.523239300004207,,10,12.50921359998756,12.523239300004207,12.523239300004207,0.03955990000395104,15.66486960000475,"[np.float64(-0.07962962962962963), np.float64(0.1361111111111111)]","[np.float64(-0.03518518518518519), np.float64(0.32037037037037036)]","[0, 0]","[0, 0]","[1, 1]","[0.0006968000088818371, 3.1555635999829974]","[None, 'target']",004,001,2025-09-30_20h28.27.084,Visual Search,,2025.1.1,59.99080940785551,2025-09-30 20h28.36.220843 +0530,
3,0,3,[np.float64(0.25092592592592594)],[np.float64(-0.10277777777777777)],[0],[0],[1],[6.617737799999304],['target'],3,0,3,0,15.692264899989823,,5,15.68314820001251,15.692264899989823,15.692264899989823,0.01794670001254417,22.301032199990004,[np.float64(0.25092592592592594)],[np.float64(-0.10277777777777777)],[0],[0],[1],[6.617737799999304],['target'],004,001,2025-09-30_20h28.27.084,Visual Search,,2025.1.1,59.99080940785551,2025-09-30 20h28.36.220843 +0530,
4,0,4,"[np.float64(0.25092592592592594), np.float64(0.4703703703703704)]","[np.float64(-0.10277777777777777), np.float64(-0.10925925925925926)]","[0, 0]","[0, 0]","[1, 1]","[0.0005631000094581395, 5.397369300015271]","[None, 'target']",4,0,4,0,22.342489700007718,,5,22.333334700000705,22.342489700007718,22.342489700007718,0.03200359997572377,27.730815899994923,"[np.float64(0.25092592592592594), np.float64(0.4703703703703704)]","[np.float64(-0.10277777777777777), np.float64(-0.10925925925925926)]","[0, 0]","[0, 0]","[1, 1]","[0.0005631000094581395, 5.397369300015271]","[None, 'target']",004,001,2025-09-30_20h28.27.084,Visual Search,,2025.1.1,59.99080940785551,2025-09-30 20h28.36.220843 +0530,
5,0,5,"[np.float64(0.4703703703703704), np.float64(-0.4074074074074074)]","[np.float64(-0.10925925925925926), np.float64(0.11944444444444445)]","[0, 0]","[0, 0]","[1, 1]","[0.0005554999806918204, 4.050821199984057]","[None, 'target']",5,0,5,0,27.756334200006677,,5,27.746973200002685,27.756334200006677,27.756334200006677,0.015891299990471452,31.797921899997164,"[np.float64(0.4703703703703704), np.float64(-0.4074074074074074)]","[np.float64(-0.10925925925925926), np.float64(0.11944444444444445)]","[0, 0]","[0, 0]","[1, 1]","[0.0005554999806918204, 4.050821199984057]","[None, 'target']",004,001,2025-09-30_20h28.27.084,Visual Search,,2025.1.1,59.99080940785551,2025-09-30 20h28.36.220843 +0530,
6,0,6,[np.float64(0.20185185185185187)],[np.float64(0.11018518518518519)],[0],[0],[1],[5.058399100002134],['target'],6,0,6,0,31.85285080000176,,10,31.838190400012536,31.85285080000176,31.85285080000176,0.03998370000044815,36.896704899991164,[np.float64(0.20185185185185187)],[np.float64(0.11018518518518519)],[0],[0],[1],[5.058399100002134],['target'],004,001,2025-09-30_20h28.27.084,Visual Search,,2025.1.1,59.99080940785551,2025-09-30 20h28.36.220843 +0530,
7,0,7,[np.float64(0.16666666666666666)],[np.float64(-0.3537037037037037)],[0],[0],[1],[5.254151400004048],['target'],7,0,7,0,36.9411689999979,,10,36.92678400001023,36.9411689999979,36.9411689999979,0.029768000007607043,42.181154799996875,[np.float64(0.16666666666666666)],[np.float64(-0.3537037037037037)],[0],[0],[1],[5.254151400004048],['target'],004,001,2025-09-30_20h28.27.084,Visual Search,,2025.1.1,59.99080940785551,2025-09-30 20h28.36.220843 +0530,
8,0,8,"[np.float64(0.16666666666666666), np.float64(0.3055555555555556)]","[np.float64(-0.3537037037037037), np.float64(0.06018518518518518)]","[0, 0]","[0, 0]","[1, 1]","[0.0008871000027284026, 4.023100899998099]","[None, 'target']",8,0,8,0,42.21688749999157,,5,42.205781099997694,42.21688749999157,42.21688749999157,0.024115500011248514,46.22898139999597,"[np.float64(0.16666666666666666), np.float64(0.3055555555555556)]","[np.float64(-0.3537037037037037), np.float64(0.06018518518518518)]","[0, 0]","[0, 0]","[1, 1]","[0.0008871000027284026, 4.023100899998099]","[None, 'target']",004,001,2025-09-30_20h28.27.084,Visual Search,,2025.1.1,59.99080940785551,2025-09-30 20h28.36.220843 +0530,
9,0,9,"[np.float64(0.3055555555555556), np.float64(0.4166666666666667)]","[np.float64(0.06018518518518518), np.float64(0.14444444444444443)]","[0, 0]","[0, 0]","[1, 1]","[0.0009365000005345792, 2.371934599999804]","[None, 'target']",9,0,9,0,46.27061360000516,,5,46.25699659998645,46.27061360000516,46.27061360000516,0.027726300002541393,48.6291373000131,"[np.float64(0.3055555555555556), np.float64(0.4166666666666667)]","[np.float64(0.06018518518518518), np.float64(0.14444444444444443)]","[0, 0]","[0, 0]","[1, 1]","[0.0009365000005345792, 2.371934599999804]","[None, 'target']",004,001,2025-09-30_20h28.27.084,Visual Search,,2025.1.1,59.99080940785551,2025-09-30 20h28.36.220843 +0530,
10,0,10,[np.float64(-0.08703703703703704)],[np.float64(0.32685185185185184)],[0],[0],[1],[3.24641540000448],['target'],10,0,10,0,48.674482300004456,,5,48.66534869998577,48.674482300004456,48.674482300004456,0.03551980000338517,51.911882999993395,[np.float64(-0.08703703703703704)],[np.float64(0.32685185185185184)],[0],[0],[1],[3.24641540000448],['target'],004,001,2025-09-30_20h28.27.084,Visual Search,,2025.1.1,59.99080940785551,2025-09-30 20h28.36.220843 +0530,
11,0,11,[np.float64(0.05925925925925926)],[np.float64(0.3388888888888889)],[0],[0],[1],[3.0890801000059582],['target'],11,0,11,0,51.970195000001695,,10,51.95552630000748,51.970195000001695,51.970195000001695,0.04336609999882057,55.04467420000583,[np.float64(0.05925925925925926)],[np.float64(0.3388888888888889)],[0],[0],[1],[3.0890801000059582],['target'],004,001,2025-09-30_20h28.27.084,Visual Search,,2025.1.1,59.99080940785551,2025-09-30 20h28.36.220843 +0530,
12,0,12,[np.float64(0.37962962962962965)],[np.float64(0.4185185185185185)],[0],[0],[1],[2.987659500009613],['target'],12,0,12,0,55.08809229999315,,10,55.07345160000841,55.08809229999315,55.08809229999315,0.028604199993424118,58.06118590000551,[np.float64(0.37962962962962965)],[np.float64(0.4185185185185185)],[0],[0],[1],[2.987659500009613],['target'],004,001,2025-09-30_20h28.27.084,Visual Search,,2025.1.1,59.99080940785551,2025-09-30 20h28.36.220843 +0530,
13,0,13,"[np.float64(0.37962962962962965), np.float64(0.07222222222222222)]","[np.float64(0.4185185185185185), np.float64(0.3972222222222222)]","[0, 0]","[0, 0]","[1, 1]","[0.0007294999959412962, 4.0636873000185005]","[None, 'target']",13,0,13,0,58.08938719998696,,5,58.07983649999369,58.08938719998696,58.08938719998696,0.018462700012605637,62.14363380000577,"[np.float64(0.37962962962962965), np.float64(0.07222222222222222)]","[np.float64(0.4185185185185185), np.float64(0.3972222222222222)]","[0, 0]","[0, 0]","[1, 1]","[0.0007294999959412962, 4.0636873000185005]","[None, 'target']",004,001,2025-09-30_20h28.27.084,Visual Search,,2025.1.1,59.99080940785551,2025-09-30 20h28.36.220843 +0530,
14,0,14,[np.float64(-0.4527777777777778)],[np.float64(0.17592592592592593)],[0],[0],[1],[2.624242200021399],['target'],14,0,14,0,62.18912279998767,,10,62.174952200002735,62.18912279998767,62.18912279998767,0.031123099994147196,64.7996501000016,[np.float64(-0.4527777777777778)],[np.float64(0.17592592592592593)],[0],[0],[1],[2.624242200021399],['target'],004,001,2025-09-30_20h28.27.084,Visual Search,,2025.1.1,59.99080940785551,2025-09-30 20h28.36.220843 +0530,
15,0,15,[np.float64(-0.07592592592592592)],[np.float64(0.030555555555555555)],[0],[0],[1],[3.6342943999916315],['target'],15,0,15,0,64.85697749999235,,10,64.84241799998563,64.85697749999235,64.85697749999235,0.041699100023834035,68.47679290000815,[np.float64(-0.07592592592592592)],[np.float64(0.030555555555555555)],[0],[0],[1],[3.6342943999916315],['target'],004,001,2025-09-30_20h28.27.084,Visual Search,,2025.1.1,59.99080940785551,2025-09-30 20h28.36.220843 +0530,
16,0,16,[np.float64(0.1527777777777778)],[np.float64(0.4351851851851852)],[0],[0],[1],[3.213979299995117],['target'],16,0,16,0,68.50609310000436,,5,68.49677410000004,68.50609310000436,68.50609310000436,0.01978669999516569,71.7109621000127,[np.float64(0.1527777777777778)],[np.float64(0.4351851851851852)],[0],[0],[1],[3.213979299995117],['target'],004,001,2025-09-30_20h28.27.084,Visual Search,,2025.1.1,59.99080940785551,2025-09-30 20h28.36.220843 +0530,
17,0,17,[np.float64(-0.14629629629629629)],[np.float64(-0.009259259259259259)],[0],[0],[1],[3.3485508000012487],['target'],17,0,17,0,71.7763561999891,,10,71.76253420001012,71.7763561999891,71.7763561999891,0.050766500004101545,75.11115640000207,[np.float64(-0.14629629629629629)],[np.float64(-0.009259259259259259)],[0],[0],[1],[3.3485508000012487],['target'],004,001,2025-09-30_20h28.27.084,Visual Search,,2025.1.1,59.99080940785551,2025-09-30 20h28.36.220843 +0530,
18,0,18,"[np.float64(-0.14629629629629629), np.float64(0.1388888888888889)]","[np.float64(-0.009259259259259259), np.float64(0.29259259259259257)]","[0, 0]","[0, 0]","[1, 1]","[0.0006716000207234174, 3.751968399999896]","[None, 'target']",18,0,18,0,75.15557900001295,,10,75.1403474000108,75.15557900001295,75.15557900001295,0.028982500021811575,78.89242940000258,"[np.float64(-0.14629629629629629), np.float64(0.1388888888888889)]","[np.float64(-0.009259259259259259), np.float64(0.29259259259259257)]","[0, 0]","[0, 0]","[1, 1]","[0.0006716000207234174, 3.751968399999896]","[None, 'target']",004,001,2025-09-30_20h28.27.084,Visual Search,,2025.1.1,59.99080940785551,2025-09-30 20h28.36.220843 +0530,
19,0,19,[np.float64(0.2324074074074074)],[np.float64(-0.4675925925925926)],[0],[0],[1],[4.11064699999406],['target'],19,0,19,0,78.94592679999187,,10,78.93104830000084,78.94592679999187,78.94592679999187,0.038300199987133965,83.0418292999966,[np.float64(0.2324074074074074)],[np.float64(-0.4675925925925926)],[0],[0],[1],[4.11064699999406],['target'],004,001,2025-09-30_20h28.27.084,Visual Search,,2025.1.1,59.99080940785551,2025-09-30 20h28.36.220843 +0530,
20,0,20,"[np.float64(0.2324074074074074), np.float64(-0.43796296296296294)]","[np.float64(-0.4675925925925926), np.float64(-0.11296296296296296)]","[0, 0]","[0, 0]","[1, 1]","[0.0006265999982133508, 4.797049300017534]","[None, 'target']",20,0,20,0,83.06991039999411,,5,83.06102279998595,83.06991039999411,83.06991039999411,0.018944400013424456,87.85833759998786,"[np.float64(0.2324074074074074), np.float64(-0.43796296296296294)]","[np.float64(-0.4675925925925926), np.float64(-0.11296296296296296)]","[0, 0]","[0, 0]","[1, 1]","[0.0006265999982133508, 4.797049300017534]","[None, 'target']",004,001,2025-09-30_20h28.27.084,Visual Search,,2025.1.1,59.99080940785551,2025-09-30 20h28.36.220843 +0530,
21,0,21,[np.float64(-0.40185185185185185)],[np.float64(0.06574074074074074)],[0],[0],[1],[2.819665899995016],['target'],21,0,21,0,87.89764989999821,,5,87.88848809999763,87.89764989999821,87.89764989999821,0.029416400007903576,90.70828190000611,[np.float64(-0.40185185185185185)],[np.float64(0.06574074074074074)],[0],[0],[1],[2.819665899995016],['target'],004,001,2025-09-30_20h28.27.084,Visual Search,,2025.1.1,59.99080940785551,2025-09-30 20h28.36.220843 +0530,
22,0,22,[np.float64(0.23148148148148148)],[np.float64(0.08796296296296297)],[0],[0],[1],[4.636752599995816],['target'],22,0,22,0,90.74680470000021,,5,90.737252299994,90.74680470000021,90.74680470000021,0.028665300022112206,95.37414339999668,[np.float64(0.23148148148148148)],[np.float64(0.08796296296296297)],[0],[0],[1],[4.636752599995816],['target'],004,001,2025-09-30_20h28.27.084,Visual Search,,2025.1.1,59.99080940785551,2025-09-30 20h28.36.220843 +0530,
23,0,23,[np.float64(-0.4888888888888889)],[np.float64(-0.2351851851851852)],[0],[0],[1],[3.5273330000054557],['target'],23,0,23,0,95.408153700002,,5,95.39875530000427,95.408153700002,95.408153700002,0.024226299981819466,98.92633909999859,[np.float64(-0.4888888888888889)],[np.float64(-0.2351851851851852)],[0],[0],[1],[3.5273330000054557],['target'],004,001,2025-09-30_20h28.27.084,Visual Search,,2025.1.1,59.99080940785551,2025-09-30 20h28.36.220843 +0530,
24,0,24,[np.float64(0.10648148148148148)],[np.float64(0.2564814814814815)],[0],[0],[1],[3.6546095000230707],['target'],24,0,24,0,98.9833537999948,,10,98.96866079999018,98.9833537999948,98.9833537999948,0.04168899997603148,102.62342009998974,[np.float64(0.10648148148148148)],[np.float64(0.2564814814814815)],[0],[0],[1],[3.6546095000230707],['target'],004,001,2025-09-30_20h28.27.084,Visual Search,,2025.1.1,59.99080940785551,2025-09-30 20h28.36.220843 +0530,
25,0,25,"[np.float64(0.10648148148148148), np.float64(0.4981481481481482)]","[np.float64(0.2564814814814815), np.float64(-0.2361111111111111)]","[0, 0]","[0, 0]","[1, 1]","[0.0008288999961223453, 2.8178029999835417]","[None, 'target']",25,0,25,0,102.67484190000687,,10,102.65793849999318,102.67484190000687,102.67484190000687,0.03426019998732954,105.47596710000653,"[np.float64(0.10648148148148148), np.float64(0.4981481481481482)]","[np.float64(0.2564814814814815), np.float64(-0.2361111111111111)]","[0, 0]","[0, 0]","[1, 1]","[0.0008288999961223453, 2.8178029999835417]","[None, 'target']",004,001,2025-09-30_20h28.27.084,Visual Search,,2025.1.1,59.99080940785551,2025-09-30 20h28.36.220843 +0530,
26,0,26,[np.float64(-0.046296296296296294)],[np.float64(0.30462962962962964)],[0],[0],[1],[3.601019499998074],['target'],26,0,26,0,105.53800239998964,,10,105.5240072000015,105.53800239998964,105.53800239998964,0.047367499995743856,109.12525179999648,[np.float64(-0.046296296296296294)],[np.float64(0.30462962962962964)],[0],[0],[1],[3.601019499998074],['target'],004,001,2025-09-30_20h28.27.084,Visual Search,,2025.1.1,59.99080940785551,2025-09-30 20h28.36.220843 +0530,
27,0,27,"[np.float64(-0.046296296296296294), np.float64(-0.3962962962962963)]","[np.float64(0.30462962962962964), np.float64(-0.30092592592592593)]","[0, 0]","[0, 0]","[1, 1]","[0.0010837999871000648, 3.4431515999895055]","[None, 'target']",27,0,27,0,109.17468940000981,,5,109.16207250001025,109.17468940000981,109.17468940000981,0.03610339999431744,112.60529300000053,"[np.float64(-0.046296296296296294), np.float64(-0.3962962962962963)]","[np.float64(0.30462962962962964), np.float64(-0.30092592592592593)]","[0, 0]","[0, 0]","[1, 1]","[0.0010837999871000648, 3.4431515999895055]","[None, 'target']",004,001,2025-09-30_20h28.27.084,Visual Search,,2025.1.1,59.99080940785551,2025-09-30 20h28.36.220843 +0530,
28,0,28,[np.float64(-0.1037037037037037)],[np.float64(0.4212962962962963)],[0],[0],[1],[3.7825363999872934],['target'],28,0,28,0,112.63416749998578,,5,112.62326640001265,112.63416749998578,112.63416749998578,0.017763499985449016,116.40595250000479,[np.float64(-0.1037037037037037)],[np.float64(0.4212962962962963)],[0],[0],[1],[3.7825363999872934],['target'],004,001,2025-09-30_20h28.27.084,Visual Search,,2025.1.1,59.99080940785551,2025-09-30 20h28.36.220843 +0530,
29,0,29,[np.float64(0.20092592592592592)],[np.float64(0.028703703703703703)],[0],[0],[1],[4.099361700005829],['target'],29,0,29,0,116.4695095999923,,10,116.45515319998958,116.4695095999923,116.4695095999923,0.048912699974607676,120.55458210001234,[np.float64(0.20092592592592592)],[np.float64(0.028703703703703703)],[0],[0],[1],[4.099361700005829],['target'],004,001,2025-09-30_20h28.27.084,Visual Search,,2025.1.1,59.99080940785551,2025-09-30 20h28.36.220843 +0530,
30,0,30,"[np.float64(0.20092592592592592), np.float64(0.31666666666666665)]","[np.float64(0.028703703703703703), np.float64(-0.3861111111111111)]","[0, 0]","[0, 0]","[1, 1]","[0.0006649999995715916, 2.1978464999992866]","[None, 'target']",30,0,30,0,120.58220890001394,,5,120.57294230000116,120.58220890001394,120.58220890001394,0.018174500000895932,122.7709293999942,"[np.float64(0.20092592592592592), np.float64(0.31666666666666665)]","[np.float64(0.028703703703703703), np.float64(-0.3861111111111111)]","[0, 0]","[0, 0]","[1, 1]","[0.0006649999995715916, 2.1978464999992866]","[None, 'target']",004,001,2025-09-30_20h28.27.084,Visual Search,,2025.1.1,59.99080940785551,2025-09-30 20h28.36.220843 +0530,
31,0,31,[np.float64(0.25833333333333336)],[np.float64(-0.21481481481481482)],[0],[0],[1],[2.41559740001685],['target'],31,0,31,0,122.83649909999804,,10,122.82215150000411,122.83649909999804,122.83649909999804,0.05078459999640472,125.2378303000005,[np.float64(0.25833333333333336)],[np.float64(-0.21481481481481482)],[0],[0],[1],[2.41559740001685],['target'],004,001,2025-09-30_20h28.27.084,Visual Search,,2025.1.1,59.99080940785551,2025-09-30 20h28.36.220843 +0530,
32,0,32,[np.float64(-0.037037037037037035)],[np.float64(-0.2462962962962963)],[0],[0],[1],[2.7669927999959327],['target'],32,0,32,0,125.28449789999286,,10,125.27066129999002,125.28449789999286,125.28449789999286,0.032637700001941994,128.037731599994,[np.float64(-0.037037037037037035)],[np.float64(-0.2462962962962963)],[0],[0],[1],[2.7669927999959327],['target'],004,001,2025-09-30_20h28.27.084,Visual Search,,2025.1.1,59.99080940785551,2025-09-30 20h28.36.220843 +0530,
33,0,33,[np.float64(-0.25833333333333336)],[np.float64(-0.2324074074074074)],[0],[0],[1],[3.6504088999936357],['target'],33,0,33,0,128.08410499998718,,10,128.0701614000136,128.08410499998718,128.08410499998718,0.0322145999816712,131.72068389999913,[np.float64(-0.25833333333333336)],[np.float64(-0.2324074074074074)],[0],[0],[1],[3.6504088999936357],['target'],004,001,2025-09-30_20h28.27.084,Visual Search,,2025.1.1,59.99080940785551,2025-09-30 20h28.36.220843 +0530,
34,0,34,[np.float64(0.3537037037037037)],[np.float64(0.48518518518518516)],[0],[0],[1],[4.143772899988107],['target'],34,0,34,0,131.77382080000825,,10,131.7595188000123,131.77382080000825,131.77382080000825,0.038505999982589856,135.90335830001277,[np.float64(0.3537037037037037)],[np.float64(0.48518518518518516)],[0],[0],[1],[4.143772899988107],['target'],004,001,2025-09-30_20h28.27.084,Visual Search,,2025.1.1,59.99080940785551,2025-09-30 20h28.36.220843 +0530,
35,0,35,"[np.float64(0.3537037037037037), np.float64(0.49166666666666664)]","[np.float64(0.48518518518518516), np.float64(0.008333333333333333)]","[0, 0]","[0, 0]","[1, 1]","[0.0007688000041525811, 3.918187699979171]","[None, 'target']",35,0,35,0,135.92816380001022,,5,135.91888429998653,135.92816380001022,135.92816380001022,0.015391400025691837,139.83753220000654,"[np.float64(0.3537037037037037), np.float64(0.49166666666666664)]","[np.float64(0.48518518518518516), np.float64(0.008333333333333333)]","[0, 0]","[0, 0]","[1, 1]","[0.0007688000041525811, 3.918187699979171]","[None, 'target']",004,001,2025-09-30_20h28.27.084,Visual Search,,2025.1.1,59.99080940785551,2025-09-30 20h28.36.220843 +0530,
36,0,36,[np.float64(0.10462962962962963)],[np.float64(0.10277777777777777)],[0],[0],[1],[3.2744307999964803],['target'],36,0,36,0,139.87252919998718,,5,139.8632307999942,139.87252919998718,139.87252919998718,0.024398100009420887,143.1378784000117,[np.float64(0.10462962962962963)],[np.float64(0.10277777777777777)],[0],[0],[1],[3.2744307999964803],['target'],004,001,2025-09-30_20h28.27.084,Visual Search,,2025.1.1,59.99080940785551,2025-09-30 20h28.36.220843 +0530,
37,0,37,[np.float64(-0.0787037037037037)],[np.float64(-0.05925925925925926)],[0],[0],[1],[3.5728593999810982],['target'],37,0,37,0,143.19408169999951,,10,143.17942840000615,143.19408169999951,143.19408169999951,0.04108059999998659,146.75240060000215,[np.float64(-0.0787037037037037)],[np.float64(-0.05925925925925926)],[0],[0],[1],[3.5728593999810982],['target'],004,001,2025-09-30_20h28.27.084,Visual Search,,2025.1.1,59.99080940785551,2025-09-30 20h28.36.220843 +0530,
38,0,38,[np.float64(0.01574074074074074)],[np.float64(-0.19166666666666668)],[0],[0],[0],[4.398830499994801],['target'],38,0,38,0,146.80363050001324,,10,146.78927909999038,146.80363050001324,146.80363050001324,0.036600599996745586,151.188187199994,[np.float64(0.01574074074074074)],[np.float64(-0.19166666666666668)],[0],[0],[0],[4.398830499994801],['target'],004,001,2025-09-30_20h28.27.084,Visual Search,,2025.1.1,59.99080940785551,2025-09-30 20h28.36.220843 +0530,
39,0,39,[np.float64(0.03611111111111111)],[np.float64(0.13055555555555556)],[0],[0],[1],[3.347660100000212],['target'],39,0,39,0,151.21319449998555,,5,151.20368420000887,151.21319449998555,151.21319449998555,0.015256600017892197,154.55147529998794,[np.float64(0.03611111111111111)],[np.float64(0.13055555555555556)],[0],[0],[1],[3.347660100000212],['target'],004,001,2025-09-30_20h28.27.084,Visual Search,,2025.1.1,59.99080940785551,2025-09-30 20h28.36.220843 +0530,
40,0,40,[np.float64(0.28425925925925927)],[np.float64(-0.387037037037037)],[0],[0],[1],[2.9130742000124883],['target'],40,0,40,0,154.58296570001403,,5,154.57354990000022,154.58296570001403,154.58296570001403,0.021807100012665614,157.48685270000715,[np.float64(0.28425925925925927)],[np.float64(-0.387037037037037)],[0],[0],[1],[2.9130742000124883],['target'],004,001,2025-09-30_20h28.27.084,Visual Search,,2025.1.1,59.99080940785551,2025-09-30 20h28.36.220843 +0530,
41,0,41,[np.float64(0.3972222222222222)],[np.float64(-0.3138888888888889)],[0],[0],[1],[3.472230999992462],['target'],41,0,41,0,157.54063209999003,,5,157.53100799999083,157.54063209999003,157.54063209999003,0.043454900005599484,161.0034430999949,[np.float64(0.3972222222222222)],[np.float64(-0.3138888888888889)],[0],[0],[1],[3.472230999992462],['target'],004,001,2025-09-30_20h28.27.084,Visual Search,,2025.1.1,59.99080940785551,2025-09-30 20h28.36.220843 +0530,
42,0,42,[np.float64(0.49444444444444446)],[np.float64(-0.44166666666666665)],[0],[0],[1],[2.7133379000006244],['target'],42,0,42,0,161.03152389999013,,5,161.0222458000062,161.03152389999013,161.03152389999013,0.0182873000157997,163.73590339999646,[np.float64(0.49444444444444446)],[np.float64(-0.44166666666666665)],[0],[0],[1],[2.7133379000006244],['target'],004,001,2025-09-30_20h28.27.084,Visual Search,,2025.1.1,59.99080940785551,2025-09-30 20h28.36.220843 +0530,
43,0,43,[np.float64(-0.3648148148148148)],[np.float64(-0.1675925925925926)],[0],[0],[1],[3.6249507000029553],['target'],43,0,43,0,163.79019920001156,,10,163.77509059998556,163.79019920001156,163.79019920001156,0.03835620000609197,167.4001103999908,[np.float64(-0.3648148148148148)],[np.float64(-0.1675925925925926)],[0],[0],[1],[3.6249507000029553],['target'],004,001,2025-09-30_20h28.27.084,Visual Search,,2025.1.1,59.99080940785551,2025-09-30 20h28.36.220843 +0530,
44,0,44,"[np.float64(-0.3648148148148148), np.float64(0.2)]","[np.float64(-0.1675925925925926), np.float64(-0.37962962962962965)]","[0, 0]","[0, 0]","[1, 1]","[0.0006868999917060137, 4.58065180000267]","[None, 'target']",44,0,44,0,167.42892179999035,,5,167.41858880000655,167.42892179999035,167.42892179999035,0.018248600012157112,171.99934119998943,"[np.float64(-0.3648148148148148), np.float64(0.2)]","[np.float64(-0.1675925925925926), np.float64(-0.37962962962962965)]","[0, 0]","[0, 0]","[1, 1]","[0.0006868999917060137, 4.58065180000267]","[None, 'target']",004,001,2025-09-30_20h28.27.084,Visual Search,,2025.1.1,59.99080940785551,2025-09-30 20h28.36.220843 +0530,
45,0,45,"[np.float64(0.2), np.float64(0.11574074074074074)]","[np.float64(-0.37962962962962965), np.float64(-0.17592592592592593)]","[0, 0]","[0, 0]","[1, 1]","[0.0009597000025678426, 2.973951099993428]","[None, 'target']",45,0,45,0,172.03938450000715,,5,172.0278330000001,172.03938450000715,172.03938450000715,0.028146800003014505,175.00201739999466,"[np.float64(0.2), np.float64(0.11574074074074074)]","[np.float64(-0.37962962962962965), np.float64(-0.17592592592592593)]","[0, 0]","[0, 0]","[1, 1]","[0.0009597000025678426, 2.973951099993428]","[None, 'target']",004,001,2025-09-30_20h28.27.084,Visual Search,,2025.1.1,59.99080940785551,2025-09-30 20h28.36.220843 +0530,
46,0,46,[np.float64(-0.3574074074074074)],[np.float64(-0.03611111111111111)],[0],[0],[1],[3.290402599988738],['target'],46,0,46,0,175.054204199987,,5,175.04466069999035,175.054204199987,175.054204199987,0.041888799984008074,178.3354801000096,[np.float64(-0.3574074074074074)],[np.float64(-0.03611111111111111)],[0],[0],[1],[3.290402599988738],['target'],004,001,2025-09-30_20h28.27.084,Visual Search,,2025.1.1,59.99080940785551,2025-09-30 20h28.36.220843 +0530,
47,0,47,[np.float64(-0.4148148148148148)],[np.float64(0.11203703703703703)],[0],[0],[1],[2.601597500004573],['target'],47,0,47,0,178.39419429999543,,10,178.3801999000134,178.39419429999543,178.39419429999543,0.043746500014094636,180.98187970000436,[np.float64(-0.4148148148148148)],[np.float64(0.11203703703703703)],[0],[0],[1],[2.601597500004573],['target'],004,001,2025-09-30_20h28.27.084,Visual Search,,2025.1.1,59.99080940785551,2025-09-30 20h28.36.220843 +0530,
48,0,48,[np.float64(-0.2351851851851852)],[np.float64(-0.01574074074074074)],[0],[0],[1],[2.58586719998857],['target'],48,0,48,0,181.02749259999837,,10,181.01279149999027,181.02749259999837,181.02749259999837,0.030573900003219023,183.59874039998977,[np.float64(-0.2351851851851852)],[np.float64(-0.01574074074074074)],[0],[0],[1],[2.58586719998857],['target'],004,001,2025-09-30_20h28.27.084,Visual Search,,2025.1.1,59.99080940785551,2025-09-30 20h28.36.220843 +0530,
49,0,49,"[np.float64(-0.2351851851851852), np.float64(0.2037037037037037)]","[np.float64(-0.01574074074074074), np.float64(-0.20462962962962963)]","[0, 0]","[0, 0]","[1, 1]","[0.0016446000081487, 2.612611199991079]","[None, 'target']",49,0,49,0,183.63441339999554,,5,183.62134350000997,183.63441339999554,183.63441339999554,0.022361200011800975,186.23434180000913,"[np.float64(-0.2351851851851852), np.float64(0.2037037037037037)]","[np.float64(-0.01574074074074074), np.float64(-0.20462962962962963)]","[0, 0]","[0, 0]","[1, 1]","[0.0016446000081487, 2.612611199991079]","[None, 'target']",004,001,2025-09-30_20h28.27.084,Visual Search,,2025.1.1,59.99080940785551,2025-09-30 20h28.36.220843 +0530,
50,0,50,[np.float64(0.47129629629629627)],[np.float64(0.03611111111111111)],[0],[0],[1],[2.7431461999949533],['target'],50,0,50,0,186.2648604999995,,5,186.25555140001234,186.2648604999995,186.2648604999995,0.020039399998495355,188.9989215999958,[np.float64(0.47129629629629627)],[np.float64(0.03611111111111111)],[0],[0],[1],[2.7431461999949533],['target'],004,001,2025-09-30_20h28.27.084,Visual Search,,2025.1.1,59.99080940785551,2025-09-30 20h28.36.220843 +0530,
51,0,51,[np.float64(-0.075)],[np.float64(0.10462962962962963)],[0],[0],[1],[2.550926399999298],['target'],51,0,51,0,189.0270312000066,,5,189.01763330001268,189.0270312000066,189.0270312000066,0.018127099989214912,191.56895710001118,[np.float64(-0.075)],[np.float64(0.10462962962962963)],[0],[0],[1],[2.550926399999298],['target'],004,001,2025-09-30_20h28.27.084,Visual Search,,2025.1.1,59.99080940785551,2025-09-30 20h28.36.220843 +0530,
52,0,52,[np.float64(-0.06666666666666667)],[np.float64(0.3111111111111111)],[0],[0],[1],[1.994894800009206],['target'],52,0,52,0,191.6180286000017,,10,191.6033213000046,191.6180286000017,191.6180286000017,0.03360239998437464,193.5984887999948,[np.float64(-0.06666666666666667)],[np.float64(0.3111111111111111)],[0],[0],[1],[1.994894800009206],['target'],004,001,2025-09-30_20h28.27.084,Visual Search,,2025.1.1,59.99080940785551,2025-09-30 20h28.36.220843 +0530,
53,0,53,[np.float64(0.1814814814814815)],[np.float64(-0.1425925925925926)],[0],[0],[1],[2.801569199975347],['target'],53,0,53,0,193.64328320001368,,10,193.6295334000024,193.64328320001368,193.64328320001368,0.029792799992719665,196.43135150001035,[np.float64(0.1814814814814815)],[np.float64(-0.1425925925925926)],[0],[0],[1],[2.801569199975347],['target'],004,001,2025-09-30_20h28.27.084,Visual Search,,2025.1.1,59.99080940785551,2025-09-30 20h28.36.220843 +0530,
54,0,54,[np.float64(0.024074074074074074)],[np.float64(0.24166666666666667)],[0],[0],[1],[2.782115400012117],['target'],54,0,54,0,196.47958529999596,,10,196.46556700000656,196.47958529999596,196.47958529999596,0.033575199980987236,199.24793320000754,[np.float64(0.024074074074074074)],[np.float64(0.24166666666666667)],[0],[0],[1],[2.782115400012117],['target'],004,001,2025-09-30_20h28.27.084,Visual Search,,2025.1.1,59.99080940785551,2025-09-30 20h28.36.220843 +0530,
55,0,55,[np.float64(-0.022222222222222223)],[np.float64(0.49907407407407406)],[0],[0],[1],[3.7366867999953683],['target'],55,0,55,0,199.29248639999423,,10,199.27829539999948,199.29248639999423,199.29248639999423,0.02968120001605712,203.01512190001085,[np.float64(-0.022222222222222223)],[np.float64(0.49907407407407406)],[0],[0],[1],[3.7366867999953683],['target'],004,001,2025-09-30_20h28.27.084,Visual Search,,2025.1.1,59.99080940785551,2025-09-30 20h28.36.220843 +0530,
56,0,56,[np.float64(0.35185185185185186)],[np.float64(0.3731481481481482)],[0],[0],[1],[2.6687347999832127],['target'],56,0,56,0,203.06245309999213,,10,203.04812379999203,203.06245309999213,203.06245309999213,0.03268429997842759,205.71723430001293,[np.float64(0.35185185185185186)],[np.float64(0.3731481481481482)],[0],[0],[1],[2.6687347999832127],['target'],004,001,2025-09-30_20h28.27.084,Visual Search,,2025.1.1,59.99080940785551,2025-09-30 20h28.36.220843 +0530,
57,0,57,[np.float64(-0.3888888888888889)],[np.float64(0.23703703703703705)],[0],[0],[1],[3.205359599989606],['target'],57,0,57,0,205.77201829999103,,10,205.75737589999335,205.77201829999103,205.77201829999103,0.039159600011771545,208.96281150000868,[np.float64(-0.3888888888888889)],[np.float64(0.23703703703703705)],[0],[0],[1],[3.205359599989606],['target'],004,001,2025-09-30_20h28.27.084,Visual Search,,2025.1.1,59.99080940785551,2025-09-30 20h28.36.220843 +0530,
58,0,58,[np.float64(0.05462962962962963)],[np.float64(0.387037037037037)],[0],[0],[1],[3.6681590000225697],['target'],58,0,58,0,209.00842739999644,,10,208.99441740001203,209.00842739999644,209.00842739999644,0.03139330001431517,212.6626641000039,[np.float64(0.05462962962962963)],[np.float64(0.387037037037037)],[0],[0],[1],[3.6681590000225697],['target'],004,001,2025-09-30_20h28.27.084,Visual Search,,2025.1.1,59.99080940785551,2025-09-30 20h28.36.220843 +0530,
59,0,59,[np.float64(0.2898148148148148)],[np.float64(-0.42314814814814816)],[0],[0],[1],[2.9525168999971356],['target'],59,0,59,0,212.70768799999496,,10,212.69357770000352,212.70768799999496,212.70768799999496,0.030696899979375303,215.64634899998782,[np.float64(0.2898148148148148)],[np.float64(-0.42314814814814816)],[0],[0],[1],[2.9525168999971356],['target'],004,001,2025-09-30_20h28.27.084,Visual Search,,2025.1.1,59.99080940785551,2025-09-30 20h28.36.220843 +0530,
60,0,60,[np.float64(0.18981481481481483)],[np.float64(0.0962962962962963)],[0],[0],[1],[2.1647655999986455],['target'],60,0,60,0,215.67609029999585,,5,215.66659430001164,215.67609029999585,215.67609029999585,0.01949030000832863,217.83163120000972,[np.float64(0.18981481481481483)],[np.float64(0.0962962962962963)],[0],[0],[1],[2.1647655999986455],['target'],004,001,2025-09-30_20h28.27.084,Visual Search,,2025.1.1,59.99080940785551,2025-09-30 20h28.36.220843 +0530,
61,0,61,[np.float64(-0.1361111111111111)],[np.float64(0.20185185185185187)],[0],[0],[1],[4.367606499989051],['target'],61,0,61,0,217.89109759998973,,10,217.8764550999913,217.89109759998973,217.89109759998973,0.04418920000898652,222.24413800000912,[np.float64(-0.1361111111111111)],[np.float64(0.20185185185185187)],[0],[0],[1],[4.367606499989051],['target'],004,001,2025-09-30_20h28.27.084,Visual Search,,2025.1.1,59.99080940785551,2025-09-30 20h28.36.220843 +0530,
62,0,62,[np.float64(0.09351851851851851)],[np.float64(0.1685185185185185)],[0],[0],[1],[2.1531050999765284],['target'],62,0,62,0,222.27039349998813,,5,222.261737599998,222.27039349998813,222.27039349998813,0.01735539999208413,224.41525900000124,[np.float64(0.09351851851851851)],[np.float64(0.1685185185185185)],[0],[0],[1],[2.1531050999765284],['target'],004,001,2025-09-30_20h28.27.084,Visual Search,,2025.1.1,59.99080940785551,2025-09-30 20h28.36.220843 +0530,
63,0,63,[np.float64(0.4527777777777778)],[np.float64(-0.4064814814814815)],[0],[0],[1],[2.761863199993968],['target'],63,0,63,0,224.4802250000066,,10,224.46560200001113,224.4802250000066,224.4802250000066,0.04933480001636781,227.2275518999959,[np.float64(0.4527777777777778)],[np.float64(-0.4064814814814815)],[0],[0],[1],[2.761863199993968],['target'],004,001,2025-09-30_20h28.27.084,Visual Search,,2025.1.1,59.99080940785551,2025-09-30 20h28.36.220843 +0530,
64,0,64,[np.float64(-0.2972222222222222)],[np.float64(-0.11574074074074074)],[0],[0],[1],[4.19505029998254],['target'],64,0,64,0,227.28025790001266,,10,227.265919700003,227.28025790001266,227.28025790001266,0.037949199991999194,231.46107160000247,[np.float64(-0.2972222222222222)],[np.float64(-0.11574074074074074)],[0],[0],[1],[4.19505029998254],['target'],004,001,2025-09-30_20h28.27.084,Visual Search,,2025.1.1,59.99080940785551,2025-09-30 20h28.36.220843 +0530,
65,0,65,[np.float64(0.45092592592592595)],[np.float64(-0.44166666666666665)],[0],[0],[1],[3.470197599992389],['target'],65,0,65,0,231.50605880000512,,10,231.4915791999956,231.50605880000512,231.50605880000512,0.030248900002334267,234.96199969999725,[np.float64(0.45092592592592595)],[np.float64(-0.44166666666666665)],[0],[0],[1],[3.470197599992389],['target'],004,001,2025-09-30_20h28.27.084,Visual Search,,2025.1.1,59.99080940785551,2025-09-30 20h28.36.220843 +0530,
66,0,66,[np.float64(0.36203703703703705)],[np.float64(-0.1814814814814815)],[0],[0],[1],[2.705939799983753],['target'],66,0,66,0,234.9984708999982,,5,234.98898299998837,234.9984708999982,234.9984708999982,0.026268299989169464,237.695160400006,[np.float64(0.36203703703703705)],[np.float64(-0.1814814814814815)],[0],[0],[1],[2.705939799983753],['target'],004,001,2025-09-30_20h28.27.084,Visual Search,,2025.1.1,59.99080940785551,2025-09-30 20h28.36.220843 +0530,
67,0,67,[np.float64(-0.3888888888888889)],[np.float64(-0.09074074074074075)],[0],[0],[1],[4.0913823999871965],['target'],67,0,67,0,237.729662800004,,5,237.72041340000578,237.729662800004,237.729662800004,0.024659100017743185,241.81201630001306,[np.float64(-0.3888888888888889)],[np.float64(-0.09074074074074075)],[0],[0],[1],[4.0913823999871965],['target'],004,001,2025-09-30_20h28.27.084,Visual Search,,2025.1.1,59.99080940785551,2025-09-30 20h28.36.220843 +0530,
68,0,68,[np.float64(-0.35185185185185186)],[np.float64(0.12129629629629629)],[0],[0],[1],[3.8437339999945834],['target'],68,0,68,0,241.86310109999613,,10,241.84870430000592,241.86310109999613,241.86310109999613,0.0361218000180088,245.6924844000023,[np.float64(-0.35185185185185186)],[np.float64(0.12129629629629629)],[0],[0],[1],[3.8437339999945834],['target'],004,001,2025-09-30_20h28.27.084,Visual Search,,2025.1.1,59.99080940785551,2025-09-30 20h28.36.220843 +0530,
69,0,69,[np.float64(-0.33055555555555555)],[np.float64(0.062037037037037036)],[0],[0],[1],[3.2494724999996834],['target'],69,0,69,0,245.7405725000135,,10,245.72594080001,245.7405725000135,245.7405725000135,0.03330010001081973,248.9754963000014,[np.float64(-0.33055555555555555)],[np.float64(0.062037037037037036)],[0],[0],[1],[3.2494724999996834],['target'],004,001,2025-09-30_20h28.27.084,Visual Search,,2025.1.1,59.99080940785551,2025-09-30 20h28.36.220843 +0530,
70,0,70,"[np.float64(-0.33055555555555555), np.float64(-0.49074074074074076)]","[np.float64(0.062037037037037036), np.float64(0.5)]","[0, 0]","[0, 0]","[1, 1]","[0.0008083999855443835, 4.89697219998925]","[None, 'target']",70,0,70,0,249.0291840999853,,10,249.0128121000016,249.0291840999853,249.0291840999853,0.037100200017448515,253.91000070000882,"[np.float64(-0.33055555555555555), np.float64(-0.49074074074074076)]","[np.float64(0.062037037037037036), np.float64(0.5)]","[0, 0]","[0, 0]","[1, 1]","[0.0008083999855443835, 4.89697219998925]","[None, 'target']",004,001,2025-09-30_20h28.27.084,Visual Search,,2025.1.1,59.99080940785551,2025-09-30 20h28.36.220843 +0530,
71,0,71,[np.float64(0.26666666666666666)],[np.float64(0.21481481481481482)],[0],[0],[1],[3.649279600009322],['target'],71,0,71,0,253.9746301000123,,10,253.95816539999214,253.9746301000123,253.9746301000123,0.04721849999623373,257.6075007999898,[np.float64(0.26666666666666666)],[np.float64(0.21481481481481482)],[0],[0],[1],[3.649279600009322],['target'],004,001,2025-09-30_20h28.27.084,Visual Search,,2025.1.1,59.99080940785551,2025-09-30 20h28.36.220843 +0530,
72,0,72,[np.float64(-0.007407407407407408)],[np.float64(0.3111111111111111)],[0],[0],[1],[3.2755245000007562],['target'],72,0,72,0,257.6512296999863,,10,257.6353177000128,257.6512296999863,257.6512296999863,0.027659800020046532,260.9113212999946,[np.float64(-0.007407407407407408)],[np.float64(0.3111111111111111)],[0],[0],[1],[3.2755245000007562],['target'],004,001,2025-09-30_20h28.27.084,Visual Search,,2025.1.1,59.99080940785551,2025-09-30 20h28.36.220843 +0530,
73,0,73,[np.float64(-0.2037037037037037)],[np.float64(0.06018518518518518)],[0],[0],[1],[2.886311799986288],['target'],73,0,73,0,260.9693568999937,,10,260.95399700000416,260.9693568999937,260.9693568999937,0.04134830000111833,263.8403485000017,[np.float64(-0.2037037037037037)],[np.float64(0.06018518518518518)],[0],[0],[1],[2.886311799986288],['target'],004,001,2025-09-30_20h28.27.084,Visual Search,,2025.1.1,59.99080940785551,2025-09-30 20h28.36.220843 +0530,
74,0,74,[np.float64(0.48333333333333334)],[np.float64(0.38796296296296295)],[0],[0],[1],[4.003884100005962],['target'],74,0,74,0,263.88232880001306,,10,263.8691103000019,263.88232880001306,263.88232880001306,0.028633000008994713,267.87308089999715,[np.float64(0.48333333333333334)],[np.float64(0.38796296296296295)],[0],[0],[1],[4.003884100005962],['target'],004,001,2025-09-30_20h28.27.084,Visual Search,,2025.1.1,59.99080940785551,2025-09-30 20h28.36.220843 +0530,
75,0,75,[np.float64(-0.2537037037037037)],[np.float64(0.30092592592592593)],[0],[0],[1],[3.4493094999925233],['target'],75,0,75,0,267.90141940000467,,5,267.8924534000107,267.90141940000467,267.90141940000467,0.01914980000583455,271.3419995000004,[np.float64(-0.2537037037037037)],[np.float64(0.30092592592592593)],[0],[0],[1],[3.4493094999925233],['target'],004,001,2025-09-30_20h28.27.084,Visual Search,,2025.1.1,59.99080940785551,2025-09-30 20h28.36.220843 +0530,
76,0,76,[np.float64(-0.14722222222222223)],[np.float64(-0.08055555555555556)],[0],[0],[1],[2.4914026000187732],['target'],76,0,76,0,271.379990299989,,5,271.3704490000091,271.379990299989,271.379990299989,0.02786750000086613,273.86225400000694,[np.float64(-0.14722222222222223)],[np.float64(-0.08055555555555556)],[0],[0],[1],[2.4914026000187732],['target'],004,001,2025-09-30_20h28.27.084,Visual Search,,2025.1.1,59.99080940785551,2025-09-30 20h28.36.220843 +0530,
77,0,77,[np.float64(0.26481481481481484)],[np.float64(-0.3509259259259259)],[0],[0],[1],[2.4067019000067376],['target'],77,0,77,0,273.8963283000048,,5,273.8853877999936,273.8963283000048,273.8963283000048,0.02227159999893047,276.29234300000826,[np.float64(0.26481481481481484)],[np.float64(-0.3509259259259259)],[0],[0],[1],[2.4067019000067376],['target'],004,001,2025-09-30_20h28.27.084,Visual Search,,2025.1.1,59.99080940785551,2025-09-30 20h28.36.220843 +0530,
78,0,78,[np.float64(0.48333333333333334)],[np.float64(0.4935185185185185)],[0],[0],[1],[3.147083099989686],['target'],78,0,78,0,276.3568582999869,,10,276.3423623999988,276.3568582999869,276.3568582999869,0.04934619998675771,279.4895932000072,[np.float64(0.48333333333333334)],[np.float64(0.4935185185185185)],[0],[0],[1],[3.147083099989686],['target'],004,001,2025-09-30_20h28.27.084,Visual Search,,2025.1.1,59.99080940785551,2025-09-30 20h28.36.220843 +0530,
79,0,79,[np.float64(-0.18333333333333332)],[np.float64(0.005555555555555556)],[0],[0],[1],[2.3667541000177152],['target'],79,0,79,0,279.53802179999184,,10,279.5235391999886,279.53802179999184,279.53802179999184,0.03353590000187978,281.89037989999633,[np.float64(-0.18333333333333332)],[np.float64(0.005555555555555556)],[0],[0],[1],[2.3667541000177152],['target'],004,001,2025-09-30_20h28.27.084,Visual Search,,2025.1.1,59.99080940785551,2025-09-30 20h28.36.220843 +0530,
80,0,80,[np.float64(0.3712962962962963)],[np.float64(0.3861111111111111)],[0],[0],[1],[2.9646424999809824],['target'],80,0,80,0,281.9173105999944,,5,281.9082350000099,281.9173105999944,281.9173105999944,0.017648499982897192,284.8730884999968,[np.float64(0.3712962962962963)],[np.float64(0.3861111111111111)],[0],[0],[1],[2.9646424999809824],['target'],004,001,2025-09-30_20h28.27.084,Visual Search,,2025.1.1,59.99080940785551,2025-09-30 20h28.36.220843 +0530,
81,0,81,[np.float64(-0.12777777777777777)],[np.float64(-0.3277777777777778)],[0],[0],[1],[3.373283699998865],['target'],81,0,81,0,284.94551339998725,,10,284.9319950999925,284.94551339998725,284.94551339998725,0.05838149998453446,288.305386299995,[np.float64(-0.12777777777777777)],[np.float64(-0.3277777777777778)],[0],[0],[1],[3.373283699998865],['target'],004,001,2025-09-30_20h28.27.084,Visual Search,,2025.1.1,59.99080940785551,2025-09-30 20h28.36.220843 +0530,
82,0,82,[np.float64(-0.18055555555555555)],[np.float64(0.4324074074074074)],[0],[0],[1],[1.9988390000071377],['target'],82,0,82,0,288.3564437000023,,10,288.3416608000116,288.3564437000023,288.3564437000023,0.036102799989748746,290.34075070000836,[np.float64(-0.18055555555555555)],[np.float64(0.4324074074074074)],[0],[0],[1],[1.9988390000071377],['target'],004,001,2025-09-30_20h28.27.084,Visual Search,,2025.1.1,59.99080940785551,2025-09-30 20h28.36.220843 +0530,
83,0,83,[np.float64(-0.42592592592592593)],[np.float64(0.24259259259259258)],[0],[0],[1],[2.9975341000244953],['target'],83,0,83,0,290.386508399999,,5,290.37606449998566,290.386508399999,290.386508399999,0.03481809998629615,293.37380510001094,[np.float64(-0.42592592592592593)],[np.float64(0.24259259259259258)],[0],[0],[1],[2.9975341000244953],['target'],004,001,2025-09-30_20h28.27.084,Visual Search,,2025.1.1,59.99080940785551,2025-09-30 20h28.36.220843 +0530,
84,0,84,[np.float64(0.13518518518518519)],[np.float64(0.3416666666666667)],[0],[0],[1],[3.646173400018597],['target'],84,0,84,0,293.4023784000019,,5,293.39268640000955,293.4023784000019,293.4023784000019,0.018372499995166436,297.0392286000133,[np.float64(0.13518518518518519)],[np.float64(0.3416666666666667)],[0],[0],[1],[3.646173400018597],['target'],004,001,2025-09-30_20h28.27.084,Visual Search,,2025.1.1,59.99080940785551,2025-09-30 20h28.36.220843 +0530,
85,0,85,[np.float64(-0.22037037037037038)],[np.float64(-0.10740740740740741)],[0],[0],[1],[3.0108386000210885],['target'],85,0,85,0,297.0902286999917,,10,297.07582040000125,297.0902286999917,297.0902286999917,0.03545769999618642,300.08677739999257,[np.float64(-0.22037037037037038)],[np.float64(-0.10740740740740741)],[0],[0],[1],[3.0108386000210885],['target'],004,001,2025-09-30_20h28.27.084,Visual Search,,2025.1.1,59.99080940785551,2025-09-30 20h28.36.220843 +0530,
86,0,86,[np.float64(0.14166666666666666)],[np.float64(0.19722222222222222)],[0],[0],[1],[2.602239500003634],['target'],86,0,86,0,300.1329110999941,,10,300.1183852000104,300.1329110999941,300.1329110999941,0.031347300013294443,302.7207411999989,[np.float64(0.14166666666666666)],[np.float64(0.19722222222222222)],[0],[0],[1],[2.602239500003634],['target'],004,001,2025-09-30_20h28.27.084,Visual Search,,2025.1.1,59.99080940785551,2025-09-30 20h28.36.220843 +0530,
87,0,87,[np.float64(-0.21481481481481482)],[np.float64(-0.13148148148148148)],[0],[0],[1],[2.5679407000134233],['target'],87,0,87,0,302.7686318999913,,10,302.75308080000104,302.7686318999913,302.7686318999913,0.03197320000617765,305.32119230000535,[np.float64(-0.21481481481481482)],[np.float64(-0.13148148148148148)],[0],[0],[1],[2.5679407000134233],['target'],004,001,2025-09-30_20h28.27.084,Visual Search,,2025.1.1,59.99080940785551,2025-09-30 20h28.36.220843 +0530,
88,0,88,[np.float64(0.2777777777777778)],[np.float64(-0.43425925925925923)],[0],[0],[1],[2.421068399999058],['target'],88,0,88,0,305.38002979999874,,10,305.36524069998995,305.38002979999874,305.38002979999874,0.04362410001340322,307.7863737999869,[np.float64(0.2777777777777778)],[np.float64(-0.43425925925925923)],[0],[0],[1],[2.421068399999058],['target'],004,001,2025-09-30_20h28.27.084,Visual Search,,2025.1.1,59.99080940785551,2025-09-30 20h28.36.220843 +0530,
89,0,89,[np.float64(-0.20555555555555555)],[np.float64(0.49722222222222223)],[0],[0],[1],[3.851424099993892],['target'],89,0,89,0,307.832107299997,,10,307.81775849999394,307.832107299997,307.832107299997,0.0312592999835033,311.66927129999385,[np.float64(-0.20555555555555555)],[np.float64(0.49722222222222223)],[0],[0],[1],[3.851424099993892],['target'],004,001,2025-09-30_20h28.27.084,Visual Search,,2025.1.1,59.99080940785551,2025-09-30 20h28.36.220843 +0530,
90,0,90,"[np.float64(-0.20555555555555555), np.float64(-0.3175925925925926)]","[np.float64(0.49722222222222223), np.float64(0.22037037037037038)]","[0, 0]","[0, 0]","[1, 1]","[0.0009626999963074923, 4.596629600011511]","[None, 'target']",90,0,90,0,311.6983670000045,,5,311.68855359999,311.6983670000045,311.6983670000045,0.018925099982880056,316.2853994999896,"[np.float64(-0.20555555555555555), np.float64(-0.3175925925925926)]","[np.float64(0.49722222222222223), np.float64(0.22037037037037038)]","[0, 0]","[0, 0]","[1, 1]","[0.0009626999963074923, 4.596629600011511]","[None, 'target']",004,001,2025-09-30_20h28.27.084,Visual Search,,2025.1.1,59.99080940785551,2025-09-30 20h28.36.220843 +0530,
91,0,91,[np.float64(0.3101851851851852)],[np.float64(0.1925925925925926)],[0],[0],[1],[2.8603186999971513],['target'],91,0,91,0,316.3193518999906,,5,316.3103085999901,316.3193518999906,316.3193518999906,0.0242405999742914,319.17083690001164,[np.float64(0.3101851851851852)],[np.float64(0.1925925925925926)],[0],[0],[1],[2.8603186999971513],['target'],004,001,2025-09-30_20h28.27.084,Visual Search,,2025.1.1,59.99080940785551,2025-09-30 20h28.36.220843 +0530,
92,0,92,[np.float64(-0.15)],[np.float64(-0.2833333333333333)],[0],[0],[1],[2.6879150999884587],['target'],92,0,92,0,319.2081049999979,,5,319.1985411999922,319.2081049999979,319.2081049999979,0.027150699985213578,321.88669720001053,[np.float64(-0.15)],[np.float64(-0.2833333333333333)],[0],[0],[1],[2.6879150999884587],['target'],004,001,2025-09-30_20h28.27.084,Visual Search,,2025.1.1,59.99080940785551,2025-09-30 20h28.36.220843 +0530,
93,0,93,[np.float64(0.15462962962962962)],[np.float64(0.17407407407407408)],[0],[0],[1],[2.7681360999995377],['target'],93,0,93,0,321.9279739999911,,5,321.918671499996,321.9279739999911,321.9279739999911,0.031385600013891235,324.687223099987,[np.float64(0.15462962962962962)],[np.float64(0.17407407407407408)],[0],[0],[1],[2.7681360999995377],['target'],004,001,2025-09-30_20h28.27.084,Visual Search,,2025.1.1,59.99080940785551,2025-09-30 20h28.36.220843 +0530,
94,0,94,[np.float64(-0.20555555555555555)],[np.float64(-0.27870370370370373)],[0],[0],[1],[3.5054523999860976],['target'],94,0,94,0,324.74293300000136,,10,324.728392399993,324.74293300000136,324.74293300000136,0.04018449998693541,328.23395749999327,[np.float64(-0.20555555555555555)],[np.float64(-0.27870370370370373)],[0],[0],[1],[3.5054523999860976],['target'],004,001,2025-09-30_20h28.27.084,Visual Search,,2025.1.1,59.99080940785551,2025-09-30 20h28.36.220843 +0530,
95,0,95,[np.float64(0.17407407407407408)],[np.float64(-0.14351851851851852)],[0],[0],[1],[3.6675033000065014],['target'],95,0,95,0,328.2808056999929,,10,328.266861400014,328.2808056999929,328.2808056999929,0.032634800008963794,331.93445339999744,[np.float64(0.17407407407407408)],[np.float64(-0.14351851851851852)],[0],[0],[1],[3.6675033000065014],['target'],004,001,2025-09-30_20h28.27.084,Visual Search,,2025.1.1,59.99080940785551,2025-09-30 20h28.36.220843 +0530,
96,0,96,[np.float64(0.03518518518518519)],[np.float64(0.014814814814814815)],[0],[0],[1],[2.078659399994649],['target'],96,0,96,0,331.9648331000062,,5,331.95451760001015,331.9648331000062,331.9648331000062,0.0198785999964457,334.0332820999902,[np.float64(0.03518518518518519)],[np.float64(0.014814814814814815)],[0],[0],[1],[2.078659399994649],['target'],004,001,2025-09-30_20h28.27.084,Visual Search,,2025.1.1,59.99080940785551,2025-09-30 20h28.36.220843 +0530,
97,0,97,[np.float64(0.18703703703703703)],[np.float64(-0.4305555555555556)],[0],[0],[1],[3.0037319000111893],['target'],97,0,97,0,334.058658199996,,5,334.049562900007,334.058658199996,334.058658199996,0.01611699999193661,337.0536875000107,[np.float64(0.18703703703703703)],[np.float64(-0.4305555555555556)],[0],[0],[1],[3.0037319000111893],['target'],004,001,2025-09-30_20h28.27.084,Visual Search,,2025.1.1,59.99080940785551,2025-09-30 20h28.36.220843 +0530,
98,0,98,[np.float64(0.16666666666666666)],[np.float64(0.1527777777777778)],[0],[0],[1],[2.374911399994744],['target'],98,0,98,0,337.1061778999865,,10,337.0912546000036,337.1061778999865,337.1061778999865,0.03659810000681318,339.46624410001095,[np.float64(0.16666666666666666)],[np.float64(0.1527777777777778)],[0],[0],[1],[2.374911399994744],['target'],004,001,2025-09-30_20h28.27.084,Visual Search,,2025.1.1,59.99080940785551,2025-09-30 20h28.36.220843 +0530,
99,0,99,[np.float64(0.012962962962962963)],[np.float64(0.20185185185185187)],[0],[0],[1],[2.4498956999741495],['target'],99,0,99,0,339.5139057000051,,10,339.49990470000193,339.5139057000051,339.5139057000051,0.03348089999053627,341.9499133999925,[np.float64(0.012962962962962963)],[np.float64(0.20185185185185187)],[0],[0],[1],[2.4498956999741495],['target'],004,001,2025-09-30_20h28.27.084,Visual Search,,2025.1.1,59.99080940785551,2025-09-30 20h28.36.220843 +0530,
100,0,100,[np.float64(-0.13148148148148148)],[np.float64(-0.1)],[0],[0],[1],[2.1975217999715824],['target'],100,0,100,0,342.00057529998594,,10,341.98615670000436,342.00057529998594,342.00057529998594,0.0359566000115592,344.18376280000666,[np.float64(-0.13148148148148148)],[np.float64(-0.1)],[0],[0],[1],[2.1975217999715824],['target'],004,001,2025-09-30_20h28.27.084,Visual Search,,2025.1.1,59.99080940785551,2025-09-30 20h28.36.220843 +0530,
101,0,101,"[np.float64(-0.13148148148148148), np.float64(-0.19074074074074074)]","[np.float64(-0.1), np.float64(0.16018518518518518)]","[0, 0]","[0, 0]","[1, 1]","[0.0027479999989736825, 2.210347400017781]","[None, 'target']",101,0,101,0,344.2174987999897,,5,344.2052416999941,344.2174987999897,344.2174987999897,0.021184900018852204,346.4157150000101,"[np.float64(-0.13148148148148148), np.float64(-0.19074074074074074)]","[np.float64(-0.1), np.float64(0.16018518518518518)]","[0, 0]","[0, 0]","[1, 1]","[0.0027479999989736825, 2.210347400017781]","[None, 'target']",004,001,2025-09-30_20h28.27.084,Visual Search,,2025.1.1,59.99080940785551,2025-09-30 20h28.36.220843 +0530,
102,0,102,[np.float64(0.39814814814814814)],[np.float64(0.22592592592592592)],[0],[0],[1],[2.515496800013352],['target'],102,0,102,0,346.4451523000025,,5,346.4359768999857,346.4451523000025,346.4451523000025,0.01996000000508502,348.9517000000051,[np.float64(0.39814814814814814)],[np.float64(0.22592592592592592)],[0],[0],[1],[2.515496800013352],['target'],004,001,2025-09-30_20h28.27.084,Visual Search,,2025.1.1,59.99080940785551,2025-09-30 20h28.36.220843 +0530,
103,0,103,[np.float64(0.42777777777777776)],[np.float64(0.14444444444444443)],[0],[0],[1],[3.4041122999915387],['target'],103,0,103,0,349.00840180000523,,10,348.9938688999973,349.00840180000523,349.00840180000523,0.041597000003093854,352.3980786000029,[np.float64(0.42777777777777776)],[np.float64(0.14444444444444443)],[0],[0],[1],[3.4041122999915387],['target'],004,001,2025-09-30_20h28.27.084,Visual Search,,2025.1.1,59.99080940785551,2025-09-30 20h28.36.220843 +0530,
104,0,104,[np.float64(0.1037037037037037)],[np.float64(-0.40185185185185185)],[0],[0],[1],[3.203307899995707],['target'],104,0,104,0,352.42475110001396,,5,352.4157056999975,352.42475110001396,352.42475110001396,0.017421099997591227,355.6194078999979,[np.float64(0.1037037037037037)],[np.float64(-0.40185185185185185)],[0],[0],[1],[3.203307899995707],['target'],004,001,2025-09-30_20h28.27.084,Visual Search,,2025.1.1,59.99080940785551,2025-09-30 20h28.36.220843 +0530,
105,0,105,[np.float64(-0.38333333333333336)],[np.float64(0.2564814814814815)],[0],[0],[1],[2.832615799998166],['target'],105,0,105,0,355.6639978000021,,10,355.6497941999987,355.6639978000021,355.6639978000021,0.029514099995139986,358.4824979999976,[np.float64(-0.38333333333333336)],[np.float64(0.2564814814814815)],[0],[0],[1],[2.832615799998166],['target'],004,001,2025-09-30_20h28.27.084,Visual Search,,2025.1.1,59.99080940785551,2025-09-30 20h28.36.220843 +0530,
106,0,106,"[np.float64(-0.38333333333333336), np.float64(0.4148148148148148)]","[np.float64(0.2564814814814815), np.float64(0.4861111111111111)]","[0, 0]","[0, 0]","[1, 1]","[0.0006748000159859657, 2.8677654000057373]","[None, 'target']",106,0,106,0,358.5288317000086,,10,358.5136194000079,358.5288317000086,358.5288317000086,0.03093750000698492,361.38159219999216,"[np.float64(-0.38333333333333336), np.float64(0.4148148148148148)]","[np.float64(0.2564814814814815), np.float64(0.4861111111111111)]","[0, 0]","[0, 0]","[1, 1]","[0.0006748000159859657, 2.8677654000057373]","[None, 'target']",004,001,2025-09-30_20h28.27.084,Visual Search,,2025.1.1,59.99080940785551,2025-09-30 20h28.36.220843 +0530,
107,0,107,[np.float64(0.3574074074074074)],[np.float64(0.3814814814814815)],[0],[0],[1],[2.0242250000010245],['target'],107,0,107,0,361.41910960001405,,5,361.4091759999865,361.41910960001405,361.41910960001405,0.02676390000851825,363.43365550000453,[np.float64(0.3574074074074074)],[np.float64(0.3814814814814815)],[0],[0],[1],[2.0242250000010245],['target'],004,001,2025-09-30_20h28.27.084,Visual Search,,2025.1.1,59.99080940785551,2025-09-30 20h28.36.220843 +0530,
108,0,108,[np.float64(-0.17407407407407408)],[np.float64(0.45740740740740743)],[0],[0],[0],[1.804914700012887],['target'],108,0,108,0,363.4928411000001,,10,363.47822369998903,363.4928411000001,363.4928411000001,0.043740799999795854,365.2832133999909,[np.float64(-0.17407407407407408)],[np.float64(0.45740740740740743)],[0],[0],[0],[1.804914700012887],['target'],004,001,2025-09-30_20h28.27.084,Visual Search,,2025.1.1,59.99080940785551,2025-09-30 20h28.36.220843 +0530,
109,0,109,[np.float64(-0.20462962962962963)],[np.float64(0.29814814814814816)],[0],[0],[1],[1.8035463000123855],['target'],109,0,109,0,365.3253107999917,,10,365.31098040001234,365.3253107999917,365.3253107999917,0.02750889997696504,367.11466580000706,[np.float64(-0.20462962962962963)],[np.float64(0.29814814814814816)],[0],[0],[1],[1.8035463000123855],['target'],004,001,2025-09-30_20h28.27.084,Visual Search,,2025.1.1,59.99080940785551,2025-09-30 20h28.36.220843 +0530,
110,0,110,[np.float64(-0.3425925925925926)],[np.float64(-0.3990740740740741)],[0],[0],[1],[4.55110430001514],['target'],110,0,110,0,367.1393903999997,,5,367.12985180001124,367.1393903999997,367.1393903999997,0.014711399999214336,371.681098800007,[np.float64(-0.3425925925925926)],[np.float64(-0.3990740740740741)],[0],[0],[1],[4.55110430001514],['target'],004,001,2025-09-30_20h28.27.084,Visual Search,,2025.1.1,59.99080940785551,2025-09-30 20h28.36.220843 +0530,
111,0,111,[np.float64(0.12685185185185185)],[np.float64(-0.4740740740740741)],[0],[0],[1],[2.0182999999960884],['target'],111,0,111,0,371.7071761999978,,5,371.6982122999907,371.7071761999978,371.7071761999978,0.016825399972731248,373.7169363000139,[np.float64(0.12685185185185185)],[np.float64(-0.4740740740740741)],[0],[0],[1],[2.0182999999960884],['target'],004,001,2025-09-30_20h28.27.084,Visual Search,,2025.1.1,59.99080940785551,2025-09-30 20h28.36.220843 +0530,
112,0,112,[np.float64(0.10555555555555556)],[np.float64(-0.375)],[0],[0],[1],[3.446388099982869],['target'],112,0,112,0,373.7642852999852,,10,373.7495185000007,373.7642852999852,373.7642852999852,0.031648000003769994,377.1960473000072,[np.float64(0.10555555555555556)],[np.float64(-0.375)],[0],[0],[1],[3.446388099982869],['target'],004,001,2025-09-30_20h28.27.084,Visual Search,,2025.1.1,59.99080940785551,2025-09-30 20h28.36.220843 +0530,
113,0,113,[np.float64(0.21481481481481482)],[np.float64(0.011111111111111112)],[0],[0],[1],[2.2523594000085723],['target'],113,0,113,0,377.2214604000037,,5,377.2125218999863,377.2214604000037,377.2214604000037,0.016024000011384487,379.46528840000974,[np.float64(0.21481481481481482)],[np.float64(0.011111111111111112)],[0],[0],[1],[2.2523594000085723],['target'],004,001,2025-09-30_20h28.27.084,Visual Search,,2025.1.1,59.99080940785551,2025-09-30 20h28.36.220843 +0530,
114,0,114,[np.float64(0.13425925925925927)],[np.float64(0.28055555555555556)],[0],[0],[1],[2.525679800019134],['target'],114,0,114,0,379.4989207999897,,5,379.48850929999026,379.4989207999897,379.4989207999897,0.02227429999038577,382.01443839998683,[np.float64(0.13425925925925927)],[np.float64(0.28055555555555556)],[0],[0],[1],[2.525679800019134],['target'],004,001,2025-09-30_20h28.27.084,Visual Search,,2025.1.1,59.99080940785551,2025-09-30 20h28.36.220843 +0530,
115,0,115,[np.float64(0.22314814814814815)],[np.float64(0.19907407407407407)],[0],[0],[1],[2.183159100008197],['target'],115,0,115,0,382.0567319999973,,5,382.0474128999922,382.0567319999973,382.0567319999973,0.03235939997830428,384.2308151999896,[np.float64(0.22314814814814815)],[np.float64(0.19907407407407407)],[0],[0],[1],[2.183159100008197],['target'],004,001,2025-09-30_20h28.27.084,Visual Search,,2025.1.1,59.99080940785551,2025-09-30 20h28.36.220843 +0530,
116,0,116,[np.float64(-0.17037037037037037)],[np.float64(-0.10648148148148148)],[0],[0],[1],[2.499682699999539],['target'],116,0,116,0,384.29502130000037,,10,384.27944079998997,384.29502130000037,384.29502130000037,0.048074399994220585,386.77919739999925,[np.float64(-0.17037037037037037)],[np.float64(-0.10648148148148148)],[0],[0],[1],[2.499682699999539],['target'],004,001,2025-09-30_20h28.27.084,Visual Search,,2025.1.1,59.99080940785551,2025-09-30 20h28.36.220843 +0530,
117,0,117,[np.float64(0.23703703703703705)],[np.float64(0.30833333333333335)],[0],[0],[1],[2.513594899995951],['target'],117,0,117,0,386.80952690000413,,5,386.80003519999445,386.80952690000413,386.80952690000413,0.02055289997952059,389.3138428000093,[np.float64(0.23703703703703705)],[np.float64(0.30833333333333335)],[0],[0],[1],[2.513594899995951],['target'],004,001,2025-09-30_20h28.27.084,Visual Search,,2025.1.1,59.99080940785551,2025-09-30 20h28.36.220843 +0530,
118,0,118,[np.float64(0.38425925925925924)],[np.float64(-0.075)],[0],[0],[1],[2.1159144999983255],['target'],118,0,118,0,389.361301500001,,10,389.3463131999888,389.361301500001,389.361301500001,0.03186819999245927,391.4623758000089,[np.float64(0.38425925925925924)],[np.float64(-0.075)],[0],[0],[1],[2.1159144999983255],['target'],004,001,2025-09-30_20h28.27.084,Visual Search,,2025.1.1,59.99080940785551,2025-09-30 20h28.36.220843 +0530,
119,0,119,"[np.float64(0.38425925925925924), np.float64(-0.030555555555555555)]","[np.float64(-0.075), np.float64(-0.07962962962962963)]","[0, 0]","[0, 0]","[1, 1]","[0.0007696999819017947, 2.435647499980405]","[None, 'target']",119,0,119,0,391.50029590001213,,5,391.49097549999715,391.50029590001213,391.50029590001213,0.02797560000908561,393.92671299999347,"[np.float64(0.38425925925925924), np.float64(-0.030555555555555555)]","[np.float64(-0.075), np.float64(-0.07962962962962963)]","[0, 0]","[0, 0]","[1, 1]","[0.0007696999819017947, 2.435647499980405]","[None, 'target']",004,001,2025-09-30_20h28.27.084,Visual Search,,2025.1.1,59.99080940785551,2025-09-30 20h28.36.220843 +0530,
120,0,120,[np.float64(-0.03425925925925926)],[np.float64(0.05648148148148148)],[0],[0],[1],[2.4793682000017725],['target'],120,0,120,0,393.95919299998786,,5,393.9500554999977,393.95919299998786,393.95919299998786,0.023067800007993355,396.4296764000028,[np.float64(-0.03425925925925926)],[np.float64(0.05648148148148148)],[0],[0],[1],[2.4793682000017725],['target'],004,001,2025-09-30_20h28.27.084,Visual Search,,2025.1.1,59.99080940785551,2025-09-30 20h28.36.220843 +0530,
121,0,121,[np.float64(0.2638888888888889)],[np.float64(0.5)],[0],[0],[1],[3.0952686999808066],['target'],121,0,121,0,396.4748544000031,,5,396.4658230000059,396.4748544000031,396.4748544000031,0.035594800021499395,399.5611846999964,[np.float64(0.2638888888888889)],[np.float64(0.5)],[0],[0],[1],[3.0952686999808066],['target'],004,001,2025-09-30_20h28.27.084,Visual Search,,2025.1.1,59.99080940785551,2025-09-30 20h28.36.220843 +0530,
122,0,122,[np.float64(0.362962962962963)],[np.float64(-0.12777777777777777)],[0],[0],[1],[2.464692000008654],['target'],122,0,122,0,399.5898693999916,,5,399.5807668000052,399.5898693999916,399.5898693999916,0.019408099993597716,402.0457632000034,[np.float64(0.362962962962963)],[np.float64(-0.12777777777777777)],[0],[0],[1],[2.464692000008654],['target'],004,001,2025-09-30_20h28.27.084,Visual Search,,2025.1.1,59.99080940785551,2025-09-30 20h28.36.220843 +0530,
123,0,123,[np.float64(0.025)],[np.float64(-0.06851851851851852)],[0],[0],[1],[2.7702671000151895],['target'],123,0,123,0,402.0853957000072,,5,402.07645220000995,402.0853957000072,402.0853957000072,0.03004539999528788,404.8469280000136,[np.float64(0.025)],[np.float64(-0.06851851851851852)],[0],[0],[1],[2.7702671000151895],['target'],004,001,2025-09-30_20h28.27.084,Visual Search,,2025.1.1,59.99080940785551,2025-09-30 20h28.36.220843 +0530,
124,0,124,[np.float64(0.3416666666666667)],[np.float64(-0.05648148148148148)],[0],[0],[1],[2.0095943000051193],['target'],124,0,124,0,404.89283570001135,,5,404.8832243999932,404.89283570001135,404.89283570001135,0.03554320000694133,406.89293120001093,[np.float64(0.3416666666666667)],[np.float64(-0.05648148148148148)],[0],[0],[1],[2.0095943000051193],['target'],004,001,2025-09-30_20h28.27.084,Visual Search,,2025.1.1,59.99080940785551,2025-09-30 20h28.36.220843 +0530,
125,0,125,[np.float64(0.21296296296296297)],[np.float64(0.29907407407407405)],[0],[0],[1],[3.0511881000129506],['target'],125,0,125,0,406.9204972999869,,5,406.9109831000096,406.9204972999869,406.9204972999869,0.01776290000998415,409.96241000000737,[np.float64(0.21296296296296297)],[np.float64(0.29907407407407405)],[0],[0],[1],[3.0511881000129506],['target'],004,001,2025-09-30_20h28.27.084,Visual Search,,2025.1.1,59.99080940785551,2025-09-30 20h28.36.220843 +0530,
126,0,126,[np.float64(0.3851851851851852)],[np.float64(0.14722222222222223)],[0],[0],[1],[3.168264800013276],['target'],126,0,126,0,410.00904619999346,,10,409.9941542999877,410.00904619999346,410.00904619999346,0.03131099999882281,413.16263080001227,[np.float64(0.3851851851851852)],[np.float64(0.14722222222222223)],[0],[0],[1],[3.168264800013276],['target'],004,001,2025-09-30_20h28.27.084,Visual Search,,2025.1.1,59.99080940785551,2025-09-30 20h28.36.220843 +0530,
127,0,127,[np.float64(-0.2972222222222222)],[np.float64(-0.15648148148148147)],[0],[0],[1],[2.105389499978628],['target'],127,0,127,0,413.22036330000265,,10,413.20639279999887,413.22036330000265,413.22036330000265,0.04279450001195073,415.312179200002,[np.float64(-0.2972222222222222)],[np.float64(-0.15648148148148147)],[0],[0],[1],[2.105389499978628],['target'],004,001,2025-09-30_20h28.27.084,Visual Search,,2025.1.1,59.99080940785551,2025-09-30 20h28.36.220843 +0530,
128,0,128,[np.float64(-0.2824074074074074)],[np.float64(0.15555555555555556)],[0],[0],[1],[4.075276999996277],['target'],128,0,128,0,415.3453142000071,,5,415.33428949999507,415.3453142000071,415.3453142000071,0.02093790000071749,419.4098465999996,[np.float64(-0.2824074074074074)],[np.float64(0.15555555555555556)],[0],[0],[1],[4.075276999996277],['target'],004,001,2025-09-30_20h28.27.084,Visual Search,,2025.1.1,59.99080940785551,2025-09-30 20h28.36.220843 +0530,
129,0,129,[np.float64(-0.1962962962962963)],[np.float64(0.18425925925925926)],[0],[0],[1],[2.094390700018266],['target'],129,0,129,0,419.4407669999928,,5,419.4310175999999,419.4407669999928,419.4407669999928,0.02058530002250336,421.5256256000139,[np.float64(-0.1962962962962963)],[np.float64(0.18425925925925926)],[0],[0],[1],[2.094390700018266],['target'],004,001,2025-09-30_20h28.27.084,Visual Search,,2025.1.1,59.99080940785551,2025-09-30 20h28.36.220843 +0530,
130,0,130,[np.float64(-0.4861111111111111)],[np.float64(-0.4361111111111111)],[0],[0],[1],[2.755651499988744],['target'],130,0,130,0,421.56364209999447,,5,421.55390729999635,421.56364209999447,421.56364209999447,0.027703499974450096,424.3097919000138,[np.float64(-0.4861111111111111)],[np.float64(-0.4361111111111111)],[0],[0],[1],[2.755651499988744],['target'],004,001,2025-09-30_20h28.27.084,Visual Search,,2025.1.1,59.99080940785551,2025-09-30 20h28.36.220843 +0530,
131,0,131,[np.float64(0.03333333333333333)],[np.float64(-0.40555555555555556)],[0],[0],[1],[2.6916757999861147],['target'],131,0,131,0,424.36327030000393,,10,424.3488166999887,424.36327030000393,424.36327030000393,0.03814109999802895,427.04060830001254,[np.float64(0.03333333333333333)],[np.float64(-0.40555555555555556)],[0],[0],[1],[2.6916757999861147],['target'],004,001,2025-09-30_20h28.27.084,Visual Search,,2025.1.1,59.99080940785551,2025-09-30 20h28.36.220843 +0530,
132,0,132,[np.float64(0.13703703703703704)],[np.float64(0.13796296296296295)],[0],[0],[0],[2.4979889999958687],['target'],132,0,132,0,427.0926809000084,,10,427.07786409999244,427.0926809000084,427.0926809000084,0.037002500001108274,429.5759279000049,[np.float64(0.13703703703703704)],[np.float64(0.13796296296296295)],[0],[0],[0],[2.4979889999958687],['target'],004,001,2025-09-30_20h28.27.084,Visual Search,,2025.1.1,59.99080940785551,2025-09-30 20h28.36.220843 +0530,
133,0,133,[np.float64(-0.4935185185185185)],[np.float64(-0.2111111111111111)],[0],[0],[1],[2.621598099998664],['target'],133,0,133,0,429.6181046999991,,10,429.6032244999951,429.6181046999991,429.6181046999991,0.027071299991803244,432.22506950001116,[np.float64(-0.4935185185185185)],[np.float64(-0.2111111111111111)],[0],[0],[1],[2.621598099998664],['target'],004,001,2025-09-30_20h28.27.084,Visual Search,,2025.1.1,59.99080940785551,2025-09-30 20h28.36.220843 +0530,
134,0,134,[np.float64(-0.23148148148148148)],[np.float64(-0.45925925925925926)],[0],[0],[0],[2.6131980000063777],['target'],134,0,134,0,432.2555429000058,,5,432.24617150000995,432.2555429000058,432.2555429000058,0.02052930000354536,434.85944649999146,[np.float64(-0.23148148148148148)],[np.float64(-0.45925925925925926)],[0],[0],[0],[2.6131980000063777],['target'],004,001,2025-09-30_20h28.27.084,Visual Search,,2025.1.1,59.99080940785551,2025-09-30 20h28.36.220843 +0530,
135,0,135,[np.float64(0.23055555555555557)],[np.float64(0.1574074074074074)],[0],[0],[1],[2.0856405000085942],['target'],135,0,135,0,434.9017310999916,,10,434.8876496999874,434.9017310999916,434.9017310999916,0.02805259998422116,436.97347420000006,[np.float64(0.23055555555555557)],[np.float64(0.1574074074074074)],[0],[0],[1],[2.0856405000085942],['target'],004,001,2025-09-30_20h28.27.084,Visual Search,,2025.1.1,59.99080940785551,2025-09-30 20h28.36.220843 +0530,
136,0,136,[np.float64(0.06944444444444445)],[np.float64(-0.0787037037037037)],[0],[0],[1],[2.08218629998737],['target'],136,0,136,0,437.0448890000116,,10,437.0248902000021,437.0448890000116,437.0448890000116,0.05082340000080876,439.10720989998663,[np.float64(0.06944444444444445)],[np.float64(-0.0787037037037037)],[0],[0],[1],[2.08218629998737],['target'],004,001,2025-09-30_20h28.27.084,Visual Search,,2025.1.1,59.99080940785551,2025-09-30 20h28.36.220843 +0530,
137,0,137,[np.float64(-0.45925925925925926)],[np.float64(0.2564814814814815)],[0],[0],[1],[2.771107199980179],['target'],137,0,137,0,439.1544963000051,,10,439.13792010000907,439.1544963000051,439.1544963000051,0.03042029999778606,441.9092752999859,[np.float64(-0.45925925925925926)],[np.float64(0.2564814814814815)],[0],[0],[1],[2.771107199980179],['target'],004,001,2025-09-30_20h28.27.084,Visual Search,,2025.1.1,59.99080940785551,2025-09-30 20h28.36.220843 +0530,
138,0,138,[np.float64(-0.1287037037037037)],[np.float64(-0.22407407407407406)],[0],[0],[1],[3.2632112999854144],['target'],138,0,138,0,441.97517839999637,,10,441.960081600002,441.97517839999637,441.97517839999637,0.0500764999887906,445.22338129999116,[np.float64(-0.1287037037037037)],[np.float64(-0.22407407407407406)],[0],[0],[1],[3.2632112999854144],['target'],004,001,2025-09-30_20h28.27.084,Visual Search,,2025.1.1,59.99080940785551,2025-09-30 20h28.36.220843 +0530,
139,0,139,[np.float64(0.262037037037037)],[np.float64(0.13796296296296295)],[0],[0],[1],[6.414658199995756],['target'],139,0,139,0,445.2711755000055,,10,445.25673269998515,445.2711755000055,445.2711755000055,0.033080299996072426,451.6715237000026,[np.float64(0.262037037037037)],[np.float64(0.13796296296296295)],[0],[0],[1],[6.414658199995756],['target'],004,001,2025-09-30_20h28.27.084,Visual Search,,2025.1.1,59.99080940785551,2025-09-30 20h28.36.220843 +0530,
140,0,140,[np.float64(0.1388888888888889)],[np.float64(-0.17037037037037037)],[0],[0],[1],[3.297208400006639],['target'],140,0,140,0,451.7227058999997,,10,451.7085732000123,451.7227058999997,451.7227058999997,0.03680040000472218,455.0059210000036,[np.float64(0.1388888888888889)],[np.float64(-0.17037037037037037)],[0],[0],[1],[3.297208400006639],['target'],004,001,2025-09-30_20h28.27.084,Visual Search,,2025.1.1,59.99080940785551,2025-09-30 20h28.36.220843 +0530,
141,0,141,[np.float64(0.008333333333333333)],[np.float64(0.38333333333333336)],[0],[0],[1],[2.6473877000098582],['target'],141,0,141,0,455.0565717999998,,10,455.0414410000085,455.0565717999998,455.0565717999998,0.03508319999673404,457.68896219998715,[np.float64(0.008333333333333333)],[np.float64(0.38333333333333336)],[0],[0],[1],[2.6473877000098582],['target'],004,001,2025-09-30_20h28.27.084,Visual Search,,2025.1.1,59.99080940785551,2025-09-30 20h28.36.220843 +0530,
142,0,142,[np.float64(-0.10185185185185185)],[np.float64(-0.1814814814814815)],[0],[0],[1],[2.2358118999982253],['target'],142,0,142,0,457.7389161000028,,10,457.72385350000695,457.7389161000028,457.7389161000028,0.0344735000107903,459.9598871000053,[np.float64(-0.10185185185185185)],[np.float64(-0.1814814814814815)],[0],[0],[1],[2.2358118999982253],['target'],004,001,2025-09-30_20h28.27.084,Visual Search,,2025.1.1,59.99080940785551,2025-09-30 20h28.36.220843 +0530,
143,0,143,[np.float64(-0.019444444444444445)],[np.float64(0.12685185185185185)],[0],[0],[1],[2.714104699989548],['target'],143,0,143,0,459.9862207999977,,5,459.97639369999524,459.9862207999977,459.9862207999977,0.016012799984309822,462.69091199999093,[np.float64(-0.019444444444444445)],[np.float64(0.12685185185185185)],[0],[0],[1],[2.714104699989548],['target'],004,001,2025-09-30_20h28.27.084,Visual Search,,2025.1.1,59.99080940785551,2025-09-30 20h28.36.220843 +0530,
144,0,144,[np.float64(0.05185185185185185)],[np.float64(-0.17314814814814813)],[0],[0],[1],[3.2422051000175998],['target'],144,0,144,0,462.7425846999977,,10,462.72814550000476,462.7425846999977,462.7425846999977,0.03626699998858385,465.9704259999853,[np.float64(0.05185185185185185)],[np.float64(-0.17314814814814813)],[0],[0],[1],[3.2422051000175998],['target'],004,001,2025-09-30_20h28.27.084,Visual Search,,2025.1.1,59.99080940785551,2025-09-30 20h28.36.220843 +0530,
145,0,145,[np.float64(-0.26296296296296295)],[np.float64(0.38981481481481484)],[0],[0],[1],[2.5982762000057846],['target'],145,0,145,0,466.0011804999958,,5,465.99108519998845,466.0011804999958,466.0011804999958,0.02057349999086,468.58972640000866,[np.float64(-0.26296296296296295)],[np.float64(0.38981481481481484)],[0],[0],[1],[2.5982762000057846],['target'],004,001,2025-09-30_20h28.27.084,Visual Search,,2025.1.1,59.99080940785551,2025-09-30 20h28.36.220843 +0530,
146,0,146,[np.float64(-0.11851851851851852)],[np.float64(-0.2222222222222222)],[0],[0],[1],[1.929788199980976],['target'],146,0,146,0,468.6379593999882,,10,468.62322919999133,468.6379593999882,468.6379593999882,0.032590299990260974,470.55309930001386,[np.float64(-0.11851851851851852)],[np.float64(-0.2222222222222222)],[0],[0],[1],[1.929788199980976],['target'],004,001,2025-09-30_20h28.27.084,Visual Search,,2025.1.1,59.99080940785551,2025-09-30 20h28.36.220843 +0530,
147,0,147,[np.float64(0.10185185185185185)],[np.float64(0.25)],[0],[0],[0],[2.795291900023585],['target'],147,0,147,0,470.6100204999966,,10,470.59414830000605,470.6100204999966,470.6100204999966,0.04086219999589957,473.389508399996,[np.float64(0.10185185185185185)],[np.float64(0.25)],[0],[0],[0],[2.795291900023585],['target'],004,001,2025-09-30_20h28.27.084,Visual Search,,2025.1.1,59.99080940785551,2025-09-30 20h28.36.220843 +0530,
148,0,148,[np.float64(-0.08148148148148149)],[np.float64(0.4046296296296296)],[0],[0],[1],[1.8682668000110425],['target'],148,0,148,0,473.4117471000063,,5,473.40294490000815,473.4117471000063,473.4117471000063,0.013241199980257079,475.27143480000086,[np.float64(-0.08148148148148149)],[np.float64(0.4046296296296296)],[0],[0],[1],[1.8682668000110425],['target'],004,001,2025-09-30_20h28.27.084,Visual Search,,2025.1.1,59.99080940785551,2025-09-30 20h28.36.220843 +0530,
149,0,149,[np.float64(-0.18981481481481483)],[np.float64(-0.125)],[0],[0],[1],[2.283394700003555],['target'],149,0,149,0,475.29641720000654,,5,475.28679959999863,475.29641720000654,475.29641720000654,0.014925499999662861,477.5704170000099,[np.float64(-0.18981481481481483)],[np.float64(-0.125)],[0],[0],[1],[2.283394700003555],['target'],004,001,2025-09-30_20h28.27.084,Visual Search,,2025.1.1,59.99080940785551,2025-09-30 20h28.36.220843 +0530,
150,0,150,[np.float64(0.18703703703703703)],[np.float64(-0.34814814814814815)],[0],[0],[1],[4.640850399999181],['target'],150,0,150,0,477.6044366999995,,5,477.5948772999982,477.6044366999995,477.6044366999995,0.023893499979749322,482.2358084000007,[np.float64(0.18703703703703703)],[np.float64(-0.34814814814814815)],[0],[0],[1],[4.640850399999181],['target'],004,001,2025-09-30_20h28.27.084,Visual Search,,2025.1.1,59.99080940785551,2025-09-30 20h28.36.220843 +0530,
151,0,151,[np.float64(0.12777777777777777)],[np.float64(0.2712962962962963)],[0],[0],[1],[2.7985944999963976],['target'],151,0,151,0,482.26496560001397,,5,482.2553775999986,482.26496560001397,482.26496560001397,0.019366499996976927,485.0541848000139,[np.float64(0.12777777777777777)],[np.float64(0.2712962962962963)],[0],[0],[1],[2.7985944999963976],['target'],004,001,2025-09-30_20h28.27.084,Visual Search,,2025.1.1,59.99080940785551,2025-09-30 20h28.36.220843 +0530,
152,0,152,[np.float64(0.3212962962962963)],[np.float64(0.053703703703703705)],[0],[0],[1],[2.4840123999747448],['target'],152,0,152,0,485.0951453000016,,5,485.0859982999973,485.0951453000016,485.0951453000016,0.031343999988166615,487.5702328000043,[np.float64(0.3212962962962963)],[np.float64(0.053703703703703705)],[0],[0],[1],[2.4840123999747448],['target'],004,001,2025-09-30_20h28.27.084,Visual Search,,2025.1.1,59.99080940785551,2025-09-30 20h28.36.220843 +0530,
153,0,153,[np.float64(-0.31203703703703706)],[np.float64(-0.3314814814814815)],[0],[0],[1],[2.5797134999884292],['target'],153,0,153,0,487.6184649000061,,5,487.6067919000052,487.6184649000061,487.6184649000061,0.03599509998457506,490.1867140000104,[np.float64(-0.31203703703703706)],[np.float64(-0.3314814814814815)],[0],[0],[1],[2.5797134999884292],['target'],004,001,2025-09-30_20h28.27.084,Visual Search,,2025.1.1,59.99080940785551,2025-09-30 20h28.36.220843 +0530,
154,0,154,[np.float64(-0.4388888888888889)],[np.float64(-0.15833333333333333)],[0],[0],[1],[1.7597830000158865],['target'],154,0,154,0,490.22236449999036,,5,490.2125828000135,490.22236449999036,490.22236449999036,0.025403000006917864,491.972665600013,[np.float64(-0.4388888888888889)],[np.float64(-0.15833333333333333)],[0],[0],[1],[1.7597830000158865],['target'],004,001,2025-09-30_20h28.27.084,Visual Search,,2025.1.1,59.99080940785551,2025-09-30 20h28.36.220843 +0530,
155,0,155,[np.float64(-0.33055555555555555)],[np.float64(0.14537037037037037)],[0],[0],[1],[3.184597199986456],['target'],155,0,155,0,492.0164165000024,,10,492.0018343999982,492.0164165000024,492.0164165000024,0.028592599992407486,495.18662279998534,[np.float64(-0.33055555555555555)],[np.float64(0.14537037037037037)],[0],[0],[1],[3.184597199986456],['target'],004,001,2025-09-30_20h28.27.084,Visual Search,,2025.1.1,59.99080940785551,2025-09-30 20h28.36.220843 +0530,
156,0,156,[np.float64(-0.08518518518518518)],[np.float64(0.3435185185185185)],[0],[0],[1],[2.12748319999082],['target'],156,0,156,0,495.2383397000085,,10,495.22375420000753,495.2383397000085,495.2383397000085,0.036726699996506795,497.3513905,[np.float64(-0.08518518518518518)],[np.float64(0.3435185185185185)],[0],[0],[1],[2.12748319999082],['target'],004,001,2025-09-30_20h28.27.084,Visual Search,,2025.1.1,59.99080940785551,2025-09-30 20h28.36.220843 +0530,
157,0,157,[np.float64(0.3194444444444444)],[np.float64(-0.23148148148148148)],[0],[0],[1],[2.528566900000442],['target'],157,0,157,0,497.405777500011,,10,497.39076169999316,497.405777500011,497.405777500011,0.038901399995666,499.91957349999575,[np.float64(0.3194444444444444)],[np.float64(-0.23148148148148148)],[0],[0],[1],[2.528566900000442],['target'],004,001,2025-09-30_20h28.27.084,Visual Search,,2025.1.1,59.99080940785551,2025-09-30 20h28.36.220843 +0530,
158,0,158,[np.float64(-0.35462962962962963)],[np.float64(0.2564814814814815)],[0],[0],[1],[1.7699833000078797],['target'],158,0,158,0,499.95604150000145,,5,499.9465393999999,499.95604150000145,499.95604150000145,0.02579939999850467,501.71666579999146,[np.float64(-0.35462962962962963)],[np.float64(0.2564814814814815)],[0],[0],[1],[1.7699833000078797],['target'],004,001,2025-09-30_20h28.27.084,Visual Search,,2025.1.1,59.99080940785551,2025-09-30 20h28.36.220843 +0530,
159,0,159,[np.float64(0.25092592592592594)],[np.float64(0.21851851851851853)],[0],[0],[1],[1.9305747000034899],['target'],159,0,159,0,501.74880790000316,,5,501.7393003999896,501.74880790000316,501.74880790000316,0.02222730001085438,503.67028839999693,[np.float64(0.25092592592592594)],[np.float64(0.21851851851851853)],[0],[0],[1],[1.9305747000034899],['target'],004,001,2025-09-30_20h28.27.084,Visual Search,,2025.1.1,59.99080940785551,2025-09-30 20h28.36.220843 +0530,
160,0,160,[np.float64(-0.4111111111111111)],[np.float64(-0.10462962962962963)],[0],[0],[1],[3.296486900013406],['target'],160,0,160,0,503.7180619999999,,10,503.7031410000054,503.7180619999999,503.7180619999999,0.03191059999517165,506.9997174000018,[np.float64(-0.4111111111111111)],[np.float64(-0.10462962962962963)],[0],[0],[1],[3.296486900013406],['target'],004,001,2025-09-30_20h28.27.084,Visual Search,,2025.1.1,59.99080940785551,2025-09-30 20h28.36.220843 +0530,
161,0,161,[np.float64(0.47314814814814815)],[np.float64(-0.15555555555555556)],[0],[0],[0],[5.072277200000826],['target'],161,0,161,0,507.0429640999937,,10,507.02914130000863,507.0429640999937,507.0429640999937,0.029214499983936548,512.1015334000112,[np.float64(0.47314814814814815)],[np.float64(-0.15555555555555556)],[0],[0],[0],[5.072277200000826],['target'],004,001,2025-09-30_20h28.27.084,Visual Search,,2025.1.1,59.99080940785551,2025-09-30 20h28.36.220843 +0530,
162,0,162,[np.float64(-0.1)],[np.float64(0.41944444444444445)],[0],[0],[1],[2.4206829000031576],['target'],162,0,162,0,512.1420886999986,,10,512.127733500005,512.1420886999986,512.1420886999986,0.025930500007234514,514.5485559999943,[np.float64(-0.1)],[np.float64(0.41944444444444445)],[0],[0],[1],[2.4206829000031576],['target'],004,001,2025-09-30_20h28.27.084,Visual Search,,2025.1.1,59.99080940785551,2025-09-30 20h28.36.220843 +0530,
163,0,163,[np.float64(-0.3037037037037037)],[np.float64(-0.30185185185185187)],[0],[0],[1],[2.1652922999928705],['target'],163,0,163,0,514.5783898000082,,5,514.5689488000062,514.5783898000082,514.5783898000082,0.020069199992576614,516.7345057000057,[np.float64(-0.3037037037037037)],[np.float64(-0.30185185185185187)],[0],[0],[1],[2.1652922999928705],['target'],004,001,2025-09-30_20h28.27.084,Visual Search,,2025.1.1,59.99080940785551,2025-09-30 20h28.36.220843 +0530,
164,0,164,[np.float64(0.2351851851851852)],[np.float64(-0.14444444444444443)],[0],[0],[1],[3.1984262999903876],['target'],164,0,164,0,516.780012400006,,10,516.7659535999992,516.780012400006,516.780012400006,0.03081009999732487,519.9644557999854,[np.float64(0.2351851851851852)],[np.float64(-0.14444444444444443)],[0],[0],[1],[3.1984262999903876],['target'],004,001,2025-09-30_20h28.27.084,Visual Search,,2025.1.1,59.99080940785551,2025-09-30 20h28.36.220843 +0530,
165,0,165,[np.float64(0.053703703703703705)],[np.float64(0.06851851851851852)],[0],[0],[1],[1.679401000001235],['target'],165,0,165,0,519.9981159000017,,5,519.9884796999977,519.9981159000017,519.9981159000017,0.023765799996908754,521.6682659999933,[np.float64(0.053703703703703705)],[np.float64(0.06851851851851852)],[0],[0],[1],[1.679401000001235],['target'],004,001,2025-09-30_20h28.27.084,Visual Search,,2025.1.1,59.99080940785551,2025-09-30 20h28.36.220843 +0530,
166,0,166,[np.float64(0.009259259259259259)],[np.float64(0.4601851851851852)],[0],[0],[1],[2.728607400000328],['target'],166,0,166,0,521.6979988999956,,5,521.6881229999999,521.6979988999956,521.6979988999956,0.018872299988288432,524.4169562000025,[np.float64(0.009259259259259259)],[np.float64(0.4601851851851852)],[0],[0],[1],[2.728607400000328],['target'],004,001,2025-09-30_20h28.27.084,Visual Search,,2025.1.1,59.99080940785551,2025-09-30 20h28.36.220843 +0530,
167,0,167,[np.float64(-0.24537037037037038)],[np.float64(-0.4222222222222222)],[0],[0],[1],[3.8721312999841757],['target'],167,0,167,0,524.451081200008,,5,524.4421075999853,524.451081200008,524.451081200008,0.024579099990660325,528.3144844000053,[np.float64(-0.24537037037037038)],[np.float64(-0.4222222222222222)],[0],[0],[1],[3.8721312999841757],['target'],004,001,2025-09-30_20h28.27.084,Visual Search,,2025.1.1,59.99080940785551,2025-09-30 20h28.36.220843 +0530,
168,0,168,[np.float64(-0.03888888888888889)],[np.float64(0.11851851851851852)],[0],[0],[1],[2.593607000017073],['target'],168,0,168,0,528.3693766999932,,10,528.3544010999904,528.3693766999932,528.3693766999932,0.039389300014590845,530.9482682000089,[np.float64(-0.03888888888888889)],[np.float64(0.11851851851851852)],[0],[0],[1],[2.593607000017073],['target'],004,001,2025-09-30_20h28.27.084,Visual Search,,2025.1.1,59.99080940785551,2025-09-30 20h28.36.220843 +0530,
169,0,169,[np.float64(-0.0787037037037037)],[np.float64(-0.10277777777777777)],[0],[0],[1],[2.4263083999976516],['target'],169,0,169,0,531.0034091999987,,10,530.9887593000021,531.0034091999987,531.0034091999987,0.03999469999689609,533.4151915000111,[np.float64(-0.0787037037037037)],[np.float64(-0.10277777777777777)],[0],[0],[1],[2.4263083999976516],['target'],004,001,2025-09-30_20h28.27.084,Visual Search,,2025.1.1,59.99080940785551,2025-09-30 20h28.36.220843 +0530,
170,0,170,[np.float64(-0.03888888888888889)],[np.float64(-0.2898148148148148)],[0],[0],[1],[2.23939010000322],['target'],170,0,170,0,533.4721306999854,,10,533.4571850000066,533.4721306999854,533.4721306999854,0.04170699999667704,535.696641699993,[np.float64(-0.03888888888888889)],[np.float64(-0.2898148148148148)],[0],[0],[1],[2.23939010000322],['target'],004,001,2025-09-30_20h28.27.084,Visual Search,,2025.1.1,59.99080940785551,2025-09-30 20h28.36.220843 +0530,
171,0,171,[np.float64(0.33425925925925926)],[np.float64(0.2101851851851852)],[0],[0],[1],[6.189355899987277],['target'],171,0,171,0,535.7405163999938,,10,535.7261205000104,535.7405163999938,535.7405163999938,0.02933289998327382,541.9157053999952,[np.float64(0.33425925925925926)],[np.float64(0.2101851851851852)],[0],[0],[1],[6.189355899987277],['target'],004,001,2025-09-30_20h28.27.084,Visual Search,,2025.1.1,59.99080940785551,2025-09-30 20h28.36.220843 +0530,
172,0,172,"[np.float64(0.33425925925925926), np.float64(0.3685185185185185)]","[np.float64(0.2101851851851852), np.float64(0.37037037037037035)]","[0, 0]","[0, 0]","[1, 1]","[0.0012661999789997935, 2.163856900006067]","[None, 'target']",172,0,172,0,541.9641776999924,,5,541.9497240000055,541.9641776999924,541.9641776999924,0.033341399976052344,544.1137829000072,"[np.float64(0.33425925925925926), np.float64(0.3685185185185185)]","[np.float64(0.2101851851851852), np.float64(0.37037037037037035)]","[0, 0]","[0, 0]","[1, 1]","[0.0012661999789997935, 2.163856900006067]","[None, 'target']",004,001,2025-09-30_20h28.27.084,Visual Search,,2025.1.1,59.99080940785551,2025-09-30 20h28.36.220843 +0530,
173,0,173,[np.float64(-0.4981481481481482)],[np.float64(0.12777777777777777)],[0],[0],[1],[2.2804250000044703],['target'],173,0,173,0,544.1436106000037,,5,544.1340285000042,544.1436106000037,544.1436106000037,0.019427799998084083,546.4146766999911,[np.float64(-0.4981481481481482)],[np.float64(0.12777777777777777)],[0],[0],[1],[2.2804250000044703],['target'],004,001,2025-09-30_20h28.27.084,Visual Search,,2025.1.1,59.99080940785551,2025-09-30 20h28.36.220843 +0530,
174,0,174,[np.float64(0.3314814814814815)],[np.float64(-0.053703703703703705)],[0],[0],[1],[2.522603199991863],['target'],174,0,174,0,546.4504978999903,,5,546.4410042999953,546.4504978999903,546.4504978999903,0.025859599991235882,548.9636979000061,[np.float64(0.3314814814814815)],[np.float64(-0.053703703703703705)],[0],[0],[1],[2.522603199991863],['target'],004,001,2025-09-30_20h28.27.084,Visual Search,,2025.1.1,59.99080940785551,2025-09-30 20h28.36.220843 +0530,
175,0,175,[np.float64(0.2064814814814815)],[np.float64(0.02962962962962963)],[0],[0],[1],[1.8288416999857873],['target'],175,0,175,0,548.9952155000065,,5,548.984833399998,548.9952155000065,548.9952155000065,0.02095419997931458,550.813873600011,[np.float64(0.2064814814814815)],[np.float64(0.02962962962962963)],[0],[0],[1],[1.8288416999857873],['target'],004,001,2025-09-30_20h28.27.084,Visual Search,,2025.1.1,59.99080940785551,2025-09-30 20h28.36.220843 +0530,
176,0,176,[np.float64(0.05925925925925926)],[np.float64(-0.18055555555555555)],[0],[0],[1],[1.758689999987837],['target'],176,0,176,0,550.8474808000028,,5,550.8378627999919,550.8474808000028,550.8474808000028,0.023550400015665218,552.5968704000115,[np.float64(0.05925925925925926)],[np.float64(-0.18055555555555555)],[0],[0],[1],[1.758689999987837],['target'],004,001,2025-09-30_20h28.27.084,Visual Search,,2025.1.1,59.99080940785551,2025-09-30 20h28.36.220843 +0530,
177,0,177,[np.float64(0.4564814814814815)],[np.float64(0.3453703703703704)],[0],[0],[1],[2.8772233999916352],['target'],177,0,177,0,552.6511305999884,,10,552.6356145000027,552.6511305999884,552.6511305999884,0.03778360001160763,555.5130492000026,[np.float64(0.4564814814814815)],[np.float64(0.3453703703703704)],[0],[0],[1],[2.8772233999916352],['target'],004,001,2025-09-30_20h28.27.084,Visual Search,,2025.1.1,59.99080940785551,2025-09-30 20h28.36.220843 +0530,
178,0,178,[np.float64(0.39814814814814814)],[np.float64(-0.3731481481481482)],[0],[0],[1],[2.995751799986465],['target'],178,0,178,0,555.546894900006,,5,555.5365893999988,555.546894900006,555.546894900006,0.022618900024099275,558.532587499998,[np.float64(0.39814814814814814)],[np.float64(-0.3731481481481482)],[0],[0],[1],[2.995751799986465],['target'],004,001,2025-09-30_20h28.27.084,Visual Search,,2025.1.1,59.99080940785551,2025-09-30 20h28.36.220843 +0530,
179,0,179,[np.float64(0.11851851851851852)],[np.float64(0.13055555555555556)],[0],[0],[1],[1.6760074000048917],['target'],179,0,179,0,558.5603533000103,,5,558.5506912000128,558.5603533000103,558.5603533000103,0.017270199983613566,560.2268078000052,[np.float64(0.11851851851851852)],[np.float64(0.13055555555555556)],[0],[0],[1],[1.6760074000048917],['target'],004,001,2025-09-30_20h28.27.084,Visual Search,,2025.1.1,59.99080940785551,2025-09-30 20h28.36.220843 +0530,
180,0,180,[np.float64(0.43148148148148147)],[np.float64(0.2175925925925926)],[0],[0],[1],[1.980683500005398],['target'],180,0,180,0,560.2634981999872,,5,560.2515560000029,560.2634981999872,560.2634981999872,0.02452339997398667,562.2326332000084,[np.float64(0.43148148148148147)],[np.float64(0.2175925925925926)],[0],[0],[1],[1.980683500005398],['target'],004,001,2025-09-30_20h28.27.084,Visual Search,,2025.1.1,59.99080940785551,2025-09-30 20h28.36.220843 +0530,
181,0,181,[np.float64(0.08981481481481482)],[np.float64(-0.11018518518518519)],[0],[0],[1],[2.494830500014359],['target'],181,0,181,0,562.2627143999853,,5,562.2528782000009,562.2627143999853,562.2627143999853,0.019402400008402765,564.7480381999922,[np.float64(0.08981481481481482)],[np.float64(-0.11018518518518519)],[0],[0],[1],[2.494830500014359],['target'],004,001,2025-09-30_20h28.27.084,Visual Search,,2025.1.1,59.99080940785551,2025-09-30 20h28.36.220843 +0530,
182,0,182,[np.float64(-0.032407407407407406)],[np.float64(0.4638888888888889)],[0],[0],[1],[2.4442613999999594],['target'],182,0,182,0,564.7780001999927,,5,564.7686099999992,564.7780001999927,564.7780001999927,0.0194103000103496,567.213096099993,[np.float64(-0.032407407407407406)],[np.float64(0.4638888888888889)],[0],[0],[1],[2.4442613999999594],['target'],004,001,2025-09-30_20h28.27.084,Visual Search,,2025.1.1,59.99080940785551,2025-09-30 20h28.36.220843 +0530,
183,0,183,[np.float64(-0.47685185185185186)],[np.float64(0.48703703703703705)],[0],[0],[0],[2.151157599990256],['target'],183,0,183,0,567.2533758000063,,5,567.2439217999927,567.2533758000063,567.2533758000063,0.030190100020263344,569.3951585000032,[np.float64(-0.47685185185185186)],[np.float64(0.48703703703703705)],[0],[0],[0],[2.151157599990256],['target'],004,001,2025-09-30_20h28.27.084,Visual Search,,2025.1.1,59.99080940785551,2025-09-30 20h28.36.220843 +0530,
184,0,184,[np.float64(-0.11203703703703703)],[np.float64(-0.025)],[0],[0],[1],[2.452632200001972],['target'],184,0,184,0,569.4193497000088,,5,569.4101010999875,569.4193497000088,569.4193497000088,0.0147685999982059,571.8631481000048,[np.float64(-0.11203703703703703)],[np.float64(-0.025)],[0],[0],[1],[2.452632200001972],['target'],004,001,2025-09-30_20h28.27.084,Visual Search,,2025.1.1,59.99080940785551,2025-09-30 20h28.36.220843 +0530,
185,0,185,[np.float64(-0.3824074074074074)],[np.float64(-0.2962962962962963)],[0],[0],[1],[1.764175799995428],['target'],185,0,185,0,571.9259646999999,,10,571.9113178999978,571.9259646999999,571.9259646999999,0.047200000000884756,573.6755601000041,[np.float64(-0.3824074074074074)],[np.float64(-0.2962962962962963)],[0],[0],[1],[1.764175799995428],['target'],004,001,2025-09-30_20h28.27.084,Visual Search,,2025.1.1,59.99080940785551,2025-09-30 20h28.36.220843 +0530,
186,0,186,[np.float64(0.337037037037037)],[np.float64(0.4)],[0],[0],[1],[3.334158599987859],['target'],186,0,186,0,573.7006084999884,,5,573.691768699995,573.7006084999884,573.7006084999884,0.016054200008511543,577.0260635000013,[np.float64(0.337037037037037)],[np.float64(0.4)],[0],[0],[1],[3.334158599987859],['target'],004,001,2025-09-30_20h28.27.084,Visual Search,,2025.1.1,59.99080940785551,2025-09-30 20h28.36.220843 +0530,
187,0,187,[np.float64(0.016666666666666666)],[np.float64(-0.3490740740740741)],[0],[0],[1],[2.9668785000103526],['target'],187,0,187,0,577.0750771999883,,10,577.0605575999944,577.0750771999883,577.0750771999883,0.034138499991968274,580.0276421000017,[np.float64(0.016666666666666666)],[np.float64(-0.3490740740740741)],[0],[0],[1],[2.9668785000103526],['target'],004,001,2025-09-30_20h28.27.084,Visual Search,,2025.1.1,59.99080940785551,2025-09-30 20h28.36.220843 +0530,
188,0,188,[np.float64(-0.412962962962963)],[np.float64(-0.3675925925925926)],[0],[0],[1],[3.2391752999974415],['target'],188,0,188,0,580.062156,,5,580.0530185000098,580.062156,580.062156,0.024859500001184642,583.2923190000001,[np.float64(-0.412962962962963)],[np.float64(-0.3675925925925926)],[0],[0],[1],[3.2391752999974415],['target'],004,001,2025-09-30_20h28.27.084,Visual Search,,2025.1.1,59.99080940785551,2025-09-30 20h28.36.220843 +0530,
189,0,189,[np.float64(-0.39444444444444443)],[np.float64(0.33055555555555555)],[0],[0],[1],[2.8838678000029176],['target'],189,0,189,0,583.3381487999868,,10,583.3241059999855,583.3381487999868,583.3381487999868,0.031551699998090044,586.2080984000058,[np.float64(-0.39444444444444443)],[np.float64(0.33055555555555555)],[0],[0],[1],[2.8838678000029176],['target'],004,001,2025-09-30_20h28.27.084,Visual Search,,2025.1.1,59.99080940785551,2025-09-30 20h28.36.220843 +0530,
190,0,190,"[np.float64(-0.39444444444444443), np.float64(0.17407407407407408)]","[np.float64(0.33055555555555555), np.float64(0.06481481481481481)]","[0, 0]","[0, 0]","[1, 1]","[0.0008457000076305121, 2.305405299994163]","[None, 'target']",190,0,190,0,586.2504755000118,,10,586.2355099999986,586.2504755000118,586.2504755000118,0.02719950000755489,588.5409904000117,"[np.float64(-0.39444444444444443), np.float64(0.17407407407407408)]","[np.float64(0.33055555555555555), np.float64(0.06481481481481481)]","[0, 0]","[0, 0]","[1, 1]","[0.0008457000076305121, 2.305405299994163]","[None, 'target']",004,001,2025-09-30_20h28.27.084,Visual Search,,2025.1.1,59.99080940785551,2025-09-30 20h28.36.220843 +0530,
191,0,191,[np.float64(-0.42314814814814816)],[np.float64(0.19074074074074074)],[0],[0],[1],[2.4565668999857735],['target'],191,0,191,0,588.5840711999917,,10,588.5701134999981,588.5840711999917,588.5840711999917,0.02890479998313822,591.0269028999901,[np.float64(-0.42314814814814816)],[np.float64(0.19074074074074074)],[0],[0],[1],[2.4565668999857735],['target'],004,001,2025-09-30_20h28.27.084,Visual Search,,2025.1.1,59.99080940785551,2025-09-30 20h28.36.220843 +0530,
192,0,192,[np.float64(-0.36666666666666664)],[np.float64(-0.23703703703703705)],[0],[0],[1],[2.8865525999863166],['target'],192,0,192,0,591.0851627000084,,10,591.0710083000013,591.0851627000084,591.0851627000084,0.043398600013460964,593.9576096000092,[np.float64(-0.36666666666666664)],[np.float64(-0.23703703703703705)],[0],[0],[1],[2.8865525999863166],['target'],004,001,2025-09-30_20h28.27.084,Visual Search,,2025.1.1,59.99080940785551,2025-09-30 20h28.36.220843 +0530,
193,0,193,[np.float64(0.3453703703703704)],[np.float64(0.2824074074074074)],[0],[0],[1],[3.2883682000101544],['target'],193,0,193,0,593.9998413999856,,10,593.9850429999933,593.9998413999856,593.9998413999856,0.027284899988444522,597.2735191000102,[np.float64(0.3453703703703704)],[np.float64(0.2824074074074074)],[0],[0],[1],[3.2883682000101544],['target'],004,001,2025-09-30_20h28.27.084,Visual Search,,2025.1.1,59.99080940785551,2025-09-30 20h28.36.220843 +0530,
194,0,194,"[np.float64(0.3453703703703704), np.float64(-0.02962962962962963)]","[np.float64(0.2824074074074074), np.float64(0.08611111111111111)]","[0, 0]","[0, 0]","[1, 1]","[0.0008344999805558473, 2.3831952000036836]","[None, 'target']",194,0,194,0,597.3031973000034,,5,597.2917443999904,597.3031973000034,597.3031973000034,0.01805349998176098,599.6753241000115,"[np.float64(0.3453703703703704), np.float64(-0.02962962962962963)]","[np.float64(0.2824074074074074), np.float64(0.08611111111111111)]","[0, 0]","[0, 0]","[1, 1]","[0.0008344999805558473, 2.3831952000036836]","[None, 'target']",004,001,2025-09-30_20h28.27.084,Visual Search,,2025.1.1,59.99080940785551,2025-09-30 20h28.36.220843 +0530,
195,0,195,[np.float64(-0.3824074074074074)],[np.float64(0.375)],[0],[0],[1],[2.9043091000057757],['target'],195,0,195,0,599.7336702999892,,10,599.7193308999995,599.7336702999892,599.7336702999892,0.043321299977833405,602.6238732000056,[np.float64(-0.3824074074074074)],[np.float64(0.375)],[0],[0],[1],[2.9043091000057757],['target'],004,001,2025-09-30_20h28.27.084,Visual Search,,2025.1.1,59.99080940785551,2025-09-30 20h28.36.220843 +0530,
196,0,196,[np.float64(0.375)],[np.float64(-0.14444444444444443)],[0],[0],[1],[2.896202699979767],['target'],196,0,196,0,602.6697400000121,,5,602.6602105000056,602.6697400000121,602.6697400000121,0.0358356999931857,605.5565408999973,[np.float64(0.375)],[np.float64(-0.14444444444444443)],[0],[0],[1],[2.896202699979767],['target'],004,001,2025-09-30_20h28.27.084,Visual Search,,2025.1.1,59.99080940785551,2025-09-30 20h28.36.220843 +0530,
197,0,197,[np.float64(0.2657407407407407)],[np.float64(0.1037037037037037)],[0],[0],[1],[1.5760170000139624],['target'],197,0,197,0,605.611479299987,,10,605.5971811999916,605.611479299987,605.611479299987,0.04030969997984357,607.1733015000063,[np.float64(0.2657407407407407)],[np.float64(0.1037037037037037)],[0],[0],[1],[1.5760170000139624],['target'],004,001,2025-09-30_20h28.27.084,Visual Search,,2025.1.1,59.99080940785551,2025-09-30 20h28.36.220843 +0530,
198,0,198,"[np.float64(0.2657407407407407), np.float64(-0.25925925925925924)]","[np.float64(0.1037037037037037), np.float64(0.04814814814814815)]","[0, 0]","[0, 0]","[1, 1]","[0.0006410000205505639, 1.7136713000072632]","[None, 'target']",198,0,198,0,607.2042442999955,,5,607.1934441000049,607.2042442999955,607.2042442999955,0.019674599985592067,608.9073344999924,"[np.float64(0.2657407407407407), np.float64(-0.25925925925925924)]","[np.float64(0.1037037037037037), np.float64(0.04814814814814815)]","[0, 0]","[0, 0]","[1, 1]","[0.0006410000205505639, 1.7136713000072632]","[None, 'target']",004,001,2025-09-30_20h28.27.084,Visual Search,,2025.1.1,59.99080940785551,2025-09-30 20h28.36.220843 +0530,
199,0,199,[np.float64(-0.02962962962962963)],[np.float64(-0.39814814814814814)],[0],[0],[1],[2.5579696999920998],['target'],199,0,199,0,608.9625484000135,,10,608.9477468999976,608.9625484000135,608.9625484000135,0.03969500001403503,611.5058386999881,[np.float64(-0.02962962962962963)],[np.float64(-0.39814814814814814)],[0],[0],[1],[2.5579696999920998],['target'],004,001,2025-09-30_20h28.27.084,Visual Search,,2025.1.1,59.99080940785551,2025-09-30 20h28.36.220843 +0530,
