thisN,thisTrialN,thisRepN,mouse.x,mouse.y,mouse.leftButton,mouse.midButton,mouse.rightButton,mouse.time,mouse.clicked_name,trials.thisRepN,trials.thisTrialN,trials.thisN,trials.thisIndex,thisRow.t,notes,num_distr,trial.started,Fixation.started,target.started,mouse.started,trial.stopped,trials.mouse.x,trials.mouse.y,trials.mouse.leftButton,trials.mouse.midButton,trials.mouse.rightButton,trials.mouse.time,trials.mouse.clicked_name,participant,session,date,expName,expVersion,psychopyVersion,frameRate,expStart,
0,0,0,[np.float64(0.1574074074074074)],[np.float64(-0.026851851851851852)],[0],[0],[1],[2.151060000003781],['target'],0,0,0,0,0.055857300001662225,,10,0.038967000000411645,0.055857300001662225,0.055857300001662225,0.038989299995591864,2.190090300020529,[np.float64(0.1574074074074074)],[np.float64(-0.026851851851851852)],[0],[0],[1],[2.151060000003781],['target'],005,001,2025-09-30_20h40.14.319,Visual Search,,2025.1.1,60.061575120214684,2025-09-30 20h40.23.843514 +0530,
1,0,1,"[np.float64(0.1574074074074074), np.float64(0.2712962962962963)]","[np.float64(-0.026851851851851852), np.float64(-0.016666666666666666)]","[0, 0]","[0, 0]","[1, 1]","[0.0005789999850094318, 1.4216207999852486]","[None, 'target']",1,0,1,0,2.2331578000157606,,10,2.2177921000111382,2.2331578000157606,2.2331578000157606,0.027530699997441843,3.6395524000108708,"[np.float64(0.1574074074074074), np.float64(0.2712962962962963)]","[np.float64(-0.026851851851851852), np.float64(-0.016666666666666666)]","[0, 0]","[0, 0]","[1, 1]","[0.0005789999850094318, 1.4216207999852486]","[None, 'target']",005,001,2025-09-30_20h40.14.319,Visual Search,,2025.1.1,60.061575120214684,2025-09-30 20h40.23.843514 +0530,
2,0,2,[np.float64(0.45)],[np.float64(0.40555555555555556)],[0],[0],[1],[3.6795973000116646],['target'],2,0,2,0,3.6708797000173945,,5,3.662558000010904,3.6708797000173945,3.6708797000173945,0.02262540001538582,7.342382800008636,[np.float64(0.45)],[np.float64(0.40555555555555556)],[0],[0],[1],[3.6795973000116646],['target'],005,001,2025-09-30_20h40.14.319,Visual Search,,2025.1.1,60.061575120214684,2025-09-30 20h40.23.843514 +0530,
3,0,3,[np.float64(-0.27314814814814814)],[np.float64(0.44166666666666665)],[0],[0],[1],[1.662137100007385],['target'],3,0,3,0,7.37521560001187,,5,7.365977500012377,7.37521560001187,7.37521560001187,0.022749399999156594,9.028625000006286,[np.float64(-0.27314814814814814)],[np.float64(0.44166666666666665)],[0],[0],[1],[1.662137100007385],['target'],005,001,2025-09-30_20h40.14.319,Visual Search,,2025.1.1,60.061575120214684,2025-09-30 20h40.23.843514 +0530,
4,0,4,"[np.float64(-0.27314814814814814), np.float64(-0.36666666666666664)]","[np.float64(0.44166666666666665), np.float64(0.22870370370370371)]","[0, 0]","[0, 0]","[1, 1]","[0.000586000009207055, 1.8753878999850713]","[None, 'target']",4,0,4,0,9.075800700025866,,5,9.065989599999739,9.075800700025866,9.075800700025866,0.03660180000588298,10.941611300018849,"[np.float64(-0.27314814814814814), np.float64(-0.36666666666666664)]","[np.float64(0.44166666666666665), np.float64(0.22870370370370371)]","[0, 0]","[0, 0]","[1, 1]","[0.000586000009207055, 1.8753878999850713]","[None, 'target']",005,001,2025-09-30_20h40.14.319,Visual Search,,2025.1.1,60.061575120214684,2025-09-30 20h40.23.843514 +0530,
5,0,5,[np.float64(0.020370370370370372)],[np.float64(0.1537037037037037)],[0],[0],[1],[1.643915199994808],['target'],5,0,5,0,10.97353300001123,,5,10.965064600022743,10.97353300001123,10.97353300001123,0.022746100003132597,12.609250700013945,[np.float64(0.020370370370370372)],[np.float64(0.1537037037037037)],[0],[0],[1],[1.643915199994808],['target'],005,001,2025-09-30_20h40.14.319,Visual Search,,2025.1.1,60.061575120214684,2025-09-30 20h40.23.843514 +0530,
6,0,6,[np.float64(-0.012962962962962963)],[np.float64(-0.49444444444444446)],[0],[0],[1],[2.103117700025905],['target'],6,0,6,0,12.685152000020025,,10,12.671057300001848,12.685152000020025,12.685152000020025,0.060721499990904704,14.774388200021349,[np.float64(-0.012962962962962963)],[np.float64(-0.49444444444444446)],[0],[0],[1],[2.103117700025905],['target'],005,001,2025-09-30_20h40.14.319,Visual Search,,2025.1.1,60.061575120214684,2025-09-30 20h40.23.843514 +0530,
7,0,7,[np.float64(-0.4305555555555556)],[np.float64(0.03148148148148148)],[0],[0],[1],[2.7667327000235673],['target'],7,0,7,0,14.882173800026067,,5,14.872270000021672,14.882173800026067,14.882173800026067,0.09732139998232014,17.639133300021058,[np.float64(-0.4305555555555556)],[np.float64(0.03148148148148148)],[0],[0],[1],[2.7667327000235673],['target'],005,001,2025-09-30_20h40.14.319,Visual Search,,2025.1.1,60.061575120214684,2025-09-30 20h40.23.843514 +0530,
8,0,8,[np.float64(-0.14907407407407408)],[np.float64(0.47314814814814815)],[0],[0],[1],[1.7293993000057526],['target'],8,0,8,0,17.669847800018033,,5,17.660760800004937,17.669847800018033,17.669847800018033,0.02132040000287816,19.390554900019197,[np.float64(-0.14907407407407408)],[np.float64(0.47314814814814815)],[0],[0],[1],[1.7293993000057526],['target'],005,001,2025-09-30_20h40.14.319,Visual Search,,2025.1.1,60.061575120214684,2025-09-30 20h40.23.843514 +0530,
9,0,9,[np.float64(-0.3814814814814815)],[np.float64(-0.275)],[0],[0],[1],[2.8702799000020605],['target'],9,0,9,0,19.452113400009694,,10,19.437623900012113,19.452113400009694,19.452113400009694,0.046056399994995445,22.308324800018454,[np.float64(-0.3814814814814815)],[np.float64(-0.275)],[0],[0],[1],[2.8702799000020605],['target'],005,001,2025-09-30_20h40.14.319,Visual Search,,2025.1.1,60.061575120214684,2025-09-30 20h40.23.843514 +0530,
10,0,10,"[np.float64(-0.3814814814814815), np.float64(0.375)]","[np.float64(-0.275), np.float64(0.4666666666666667)]","[0, 0]","[0, 0]","[0, 1]","[0.0018973999831359833, 2.247598799993284]","[None, 'target']",10,0,10,0,22.372844800003804,,5,22.357595000008587,22.372844800003804,22.372844800003804,0.047939299984136596,24.605311500024982,"[np.float64(-0.3814814814814815), np.float64(0.375)]","[np.float64(-0.275), np.float64(0.4666666666666667)]","[0, 0]","[0, 0]","[0, 1]","[0.0018973999831359833, 2.247598799993284]","[None, 'target']",005,001,2025-09-30_20h40.14.319,Visual Search,,2025.1.1,60.061575120214684,2025-09-30 20h40.23.843514 +0530,
11,0,11,[np.float64(-0.29907407407407405)],[np.float64(0.09259259259259259)],[0],[0],[1],[4.121230999997351],['target'],11,0,11,0,24.66391930001555,,10,24.64900220002164,24.66391930001555,24.66391930001555,0.043275500007439405,28.770287500025006,[np.float64(-0.29907407407407405)],[np.float64(0.09259259259259259)],[0],[0],[1],[4.121230999997351],['target'],005,001,2025-09-30_20h40.14.319,Visual Search,,2025.1.1,60.061575120214684,2025-09-30 20h40.23.843514 +0530,
12,0,12,[np.float64(0.15925925925925927)],[np.float64(-0.13703703703703704)],[0],[0],[1],[2.2408566999947652],['target'],12,0,12,0,28.812434000021312,,10,28.798076900013257,28.812434000021312,28.812434000021312,0.027659499988658354,31.039133800019044,[np.float64(0.15925925925925927)],[np.float64(-0.13703703703703704)],[0],[0],[1],[2.2408566999947652],['target'],005,001,2025-09-30_20h40.14.319,Visual Search,,2025.1.1,60.061575120214684,2025-09-30 20h40.23.843514 +0530,
13,0,13,[np.float64(0.05277777777777778)],[np.float64(-0.15185185185185185)],[0],[0],[1],[2.795578800025396],['target'],13,0,13,0,31.06841170002008,,5,31.058457800012548,31.06841170002008,31.06841170002008,0.01864900000509806,33.854189600009704,[np.float64(0.05277777777777778)],[np.float64(-0.15185185185185185)],[0],[0],[1],[2.795578800025396],['target'],005,001,2025-09-30_20h40.14.319,Visual Search,,2025.1.1,60.061575120214684,2025-09-30 20h40.23.843514 +0530,
14,0,14,[np.float64(0.1962962962962963)],[np.float64(-0.13055555555555556)],[0],[0],[1],[2.651592799986247],['target'],14,0,14,0,33.899453100020764,,10,33.884970400016755,33.899453100020764,33.899453100020764,0.030518799991114065,36.53667370000039,[np.float64(0.1962962962962963)],[np.float64(-0.13055555555555556)],[0],[0],[1],[2.651592799986247],['target'],005,001,2025-09-30_20h40.14.319,Visual Search,,2025.1.1,60.061575120214684,2025-09-30 20h40.23.843514 +0530,
15,0,15,"[np.float64(0.1962962962962963), np.float64(-0.06851851851851852)]","[np.float64(-0.13055555555555556), np.float64(0.2574074074074074)]","[0, 0]","[0, 0]","[1, 1]","[0.0006385000015143305, 2.0888436999812257]","[None, 'target']",15,0,15,0,36.579288900014944,,10,36.56511130000581,36.579288900014944,36.579288900014944,0.028079900017473847,38.65404040002613,"[np.float64(0.1962962962962963), np.float64(-0.06851851851851852)]","[np.float64(-0.13055555555555556), np.float64(0.2574074074074074)]","[0, 0]","[0, 0]","[1, 1]","[0.0006385000015143305, 2.0888436999812257]","[None, 'target']",005,001,2025-09-30_20h40.14.319,Visual Search,,2025.1.1,60.061575120214684,2025-09-30 20h40.23.843514 +0530,
16,0,16,[np.float64(0.14074074074074075)],[np.float64(-0.06296296296296296)],[0],[0],[1],[1.5103421999956481],['target'],16,0,16,0,38.687123600015184,,5,38.6765934000141,38.687123600015184,38.687123600015184,0.02226719999453053,40.18708310002694,[np.float64(0.14074074074074075)],[np.float64(-0.06296296296296296)],[0],[0],[1],[1.5103421999956481],['target'],005,001,2025-09-30_20h40.14.319,Visual Search,,2025.1.1,60.061575120214684,2025-09-30 20h40.23.843514 +0530,
17,0,17,[np.float64(0.10740740740740741)],[np.float64(-0.14537037037037037)],[0],[0],[1],[2.506136299984064],['target'],17,0,17,0,40.22256760002347,,5,40.21327910001855,40.22256760002347,40.22256760002347,0.025795399997150525,42.719557400007034,[np.float64(0.10740740740740741)],[np.float64(-0.14537037037037037)],[0],[0],[1],[2.506136299984064],['target'],005,001,2025-09-30_20h40.14.319,Visual Search,,2025.1.1,60.061575120214684,2025-09-30 20h40.23.843514 +0530,
18,0,18,"[np.float64(0.10740740740740741), np.float64(0.43703703703703706)]","[np.float64(-0.14537037037037037), np.float64(0.43703703703703706)]","[0, 0]","[0, 0]","[1, 1]","[0.0012095000129193068, 1.8064769000047818]","[None, 'target']",18,0,18,0,42.757095200009644,,5,42.74614600001951,42.757095200009644,42.757095200009644,0.026225399982649833,44.55281060002744,"[np.float64(0.10740740740740741), np.float64(0.43703703703703706)]","[np.float64(-0.14537037037037037), np.float64(0.43703703703703706)]","[0, 0]","[0, 0]","[1, 1]","[0.0012095000129193068, 1.8064769000047818]","[None, 'target']",005,001,2025-09-30_20h40.14.319,Visual Search,,2025.1.1,60.061575120214684,2025-09-30 20h40.23.843514 +0530,
19,0,19,[np.float64(-0.31296296296296294)],[np.float64(0.3490740740740741)],[0],[0],[1],[1.698472199990647],['target'],19,0,19,0,44.59881660001702,,5,44.58988740001223,44.59881660001702,44.59881660001702,0.03637170000001788,46.28875920001883,[np.float64(-0.31296296296296294)],[np.float64(0.3490740740740741)],[0],[0],[1],[1.698472199990647],['target'],005,001,2025-09-30_20h40.14.319,Visual Search,,2025.1.1,60.061575120214684,2025-09-30 20h40.23.843514 +0530,
20,0,20,[np.float64(-0.38333333333333336)],[np.float64(-0.17037037037037037)],[0],[0],[1],[2.1412379999819677],['target'],20,0,20,0,46.323159700026736,,5,46.3135675000085,46.323159700026736,46.323159700026736,0.023769699997501448,48.45507520000683,[np.float64(-0.38333333333333336)],[np.float64(-0.17037037037037037)],[0],[0],[1],[2.1412379999819677],['target'],005,001,2025-09-30_20h40.14.319,Visual Search,,2025.1.1,60.061575120214684,2025-09-30 20h40.23.843514 +0530,
21,0,21,"[np.float64(-0.38333333333333336), np.float64(-0.31203703703703706)]","[np.float64(-0.17037037037037037), np.float64(-0.10277777777777777)]","[0, 0]","[0, 0]","[1, 1]","[0.0008157000120263547, 1.2521129000233486]","[None, 'target']",21,0,21,0,48.51166120002745,,5,48.49958120001247,48.51166120002745,48.51166120002745,0.04392019999795593,49.7519521000213,"[np.float64(-0.38333333333333336), np.float64(-0.31203703703703706)]","[np.float64(-0.17037037037037037), np.float64(-0.10277777777777777)]","[0, 0]","[0, 0]","[1, 1]","[0.0008157000120263547, 1.2521129000233486]","[None, 'target']",005,001,2025-09-30_20h40.14.319,Visual Search,,2025.1.1,60.061575120214684,2025-09-30 20h40.23.843514 +0530,
22,0,22,[np.float64(0.12037037037037036)],[np.float64(0.44814814814814813)],[0],[0],[1],[1.7177711999975145],['target'],22,0,22,0,49.815579200017964,,10,49.80096290001529,49.815579200017964,49.815579200017964,0.048287600016919896,51.51882980001392,[np.float64(0.12037037037037036)],[np.float64(0.44814814814814813)],[0],[0],[1],[1.7177711999975145],['target'],005,001,2025-09-30_20h40.14.319,Visual Search,,2025.1.1,60.061575120214684,2025-09-30 20h40.23.843514 +0530,
23,0,23,"[np.float64(0.12037037037037036), np.float64(0.08611111111111111)]","[np.float64(0.44814814814814813), np.float64(0.2222222222222222)]","[0, 0]","[0, 0]","[1, 1]","[0.0006617999752052128, 1.42356589998235]","[None, 'target']",23,0,23,0,51.57721130002756,,10,51.56059050001204,51.57721130002756,51.57721130002756,0.04151559999445453,52.98427490002359,"[np.float64(0.12037037037037036), np.float64(0.08611111111111111)]","[np.float64(0.44814814814814813), np.float64(0.2222222222222222)]","[0, 0]","[0, 0]","[1, 1]","[0.0006617999752052128, 1.42356589998235]","[None, 'target']",005,001,2025-09-30_20h40.14.319,Visual Search,,2025.1.1,60.061575120214684,2025-09-30 20h40.23.843514 +0530,
24,0,24,"[np.float64(0.08611111111111111), np.float64(-0.2574074074074074)]","[np.float64(0.2222222222222222), np.float64(-0.001851851851851852)]","[0, 0]","[0, 0]","[1, 1]","[0.0008626999915577471, 1.7698099999979604]","[None, 'target']",24,0,24,0,53.04654190002475,,10,53.03093740000622,53.04654190002475,53.04654190002475,0.04617519999737851,54.800840000010794,"[np.float64(0.08611111111111111), np.float64(-0.2574074074074074)]","[np.float64(0.2222222222222222), np.float64(-0.001851851851851852)]","[0, 0]","[0, 0]","[1, 1]","[0.0008626999915577471, 1.7698099999979604]","[None, 'target']",005,001,2025-09-30_20h40.14.319,Visual Search,,2025.1.1,60.061575120214684,2025-09-30 20h40.23.843514 +0530,
25,0,25,"[np.float64(-0.2574074074074074), np.float64(0.2972222222222222)]","[np.float64(-0.001851851851851852), np.float64(-0.37962962962962965)]","[0, 0]","[0, 0]","[1, 1]","[0.000667200016323477, 1.6652537000190932]","[None, 'target']",25,0,25,0,54.82946790001006,,5,54.819760400016094,54.82946790001006,54.82946790001006,0.018467199988663197,56.48514250002336,"[np.float64(-0.2574074074074074), np.float64(0.2972222222222222)]","[np.float64(-0.001851851851851852), np.float64(-0.37962962962962965)]","[0, 0]","[0, 0]","[1, 1]","[0.000667200016323477, 1.6652537000190932]","[None, 'target']",005,001,2025-09-30_20h40.14.319,Visual Search,,2025.1.1,60.061575120214684,2025-09-30 20h40.23.843514 +0530,
26,0,26,[np.float64(-0.1259259259259259)],[np.float64(-0.15925925925925927)],[0],[0],[1],[1.3541484999877866],['target'],26,0,26,0,56.54812060002587,,10,56.53397800002131,56.54812060002587,56.54812060002587,0.04851209998014383,57.88834940001834,[np.float64(-0.1259259259259259)],[np.float64(-0.15925925925925927)],[0],[0],[1],[1.3541484999877866],['target'],005,001,2025-09-30_20h40.14.319,Visual Search,,2025.1.1,60.061575120214684,2025-09-30 20h40.23.843514 +0530,
27,0,27,"[np.float64(-0.1259259259259259), np.float64(-0.10925925925925926)]","[np.float64(-0.15925925925925927), np.float64(-0.47314814814814815)]","[0, 0]","[0, 0]","[1, 1]","[0.0006813000072725117, 1.5551193999999668]","[None, 'target']",27,0,27,0,57.960464900010265,,10,57.94551760001923,57.960464900010265,57.960464900010265,0.056635199987795204,59.50088920001872,"[np.float64(-0.1259259259259259), np.float64(-0.10925925925925926)]","[np.float64(-0.15925925925925927), np.float64(-0.47314814814814815)]","[0, 0]","[0, 0]","[1, 1]","[0.0006813000072725117, 1.5551193999999668]","[None, 'target']",005,001,2025-09-30_20h40.14.319,Visual Search,,2025.1.1,60.061575120214684,2025-09-30 20h40.23.843514 +0530,
28,0,28,"[np.float64(-0.10925925925925926), np.float64(-0.12037037037037036)]","[np.float64(-0.47314814814814815), np.float64(-0.19074074074074074)]","[0, 0]","[0, 0]","[1, 1]","[0.0010457999887876213, 1.4866669999901205]","[None, 'target']",28,0,28,0,59.54194070000085,,5,59.53059700000449,59.54194070000085,59.54194070000085,0.028942099976120517,61.01746150001418,"[np.float64(-0.10925925925925926), np.float64(-0.12037037037037036)]","[np.float64(-0.47314814814814815), np.float64(-0.19074074074074074)]","[0, 0]","[0, 0]","[1, 1]","[0.0010457999887876213, 1.4866669999901205]","[None, 'target']",005,001,2025-09-30_20h40.14.319,Visual Search,,2025.1.1,60.061575120214684,2025-09-30 20h40.23.843514 +0530,
29,0,29,"[np.float64(-0.12037037037037036), np.float64(0.3351851851851852)]","[np.float64(-0.19074074074074074), np.float64(0.10185185185185185)]","[0, 0]","[0, 0]","[1, 1]","[0.0006311000033747405, 1.782424600009108]","[None, 'target']",29,0,29,0,61.08393320001778,,10,61.068680700002005,61.08393320001778,61.08393320001778,0.05050320000736974,62.85122140002204,"[np.float64(-0.12037037037037036), np.float64(0.3351851851851852)]","[np.float64(-0.19074074074074074), np.float64(0.10185185185185185)]","[0, 0]","[0, 0]","[1, 1]","[0.0006311000033747405, 1.782424600009108]","[None, 'target']",005,001,2025-09-30_20h40.14.319,Visual Search,,2025.1.1,60.061575120214684,2025-09-30 20h40.23.843514 +0530,
30,0,30,"[np.float64(0.3351851851851852), np.float64(-0.4398148148148148)]","[np.float64(0.10185185185185185), np.float64(0.42685185185185187)]","[0, 0]","[0, 0]","[1, 1]","[0.0009500000160187483, 1.684262900002068]","[None, 'target']",30,0,30,0,62.89348510000855,,5,62.88361360001727,62.89348510000855,62.89348510000855,0.031910899997456,64.56800320002367,"[np.float64(0.3351851851851852), np.float64(-0.4398148148148148)]","[np.float64(0.10185185185185185), np.float64(0.42685185185185187)]","[0, 0]","[0, 0]","[1, 1]","[0.0009500000160187483, 1.684262900002068]","[None, 'target']",005,001,2025-09-30_20h40.14.319,Visual Search,,2025.1.1,60.061575120214684,2025-09-30 20h40.23.843514 +0530,
31,0,31,"[np.float64(-0.4398148148148148), np.float64(0.37037037037037035)]","[np.float64(0.42685185185185187), np.float64(-0.31296296296296294)]","[0, 0]","[0, 0]","[1, 1]","[0.0006442999874707311, 2.1014059000008274]","[None, 'target']",31,0,31,0,64.60949360000086,,5,64.59976860001916,64.60949360000086,64.60949360000086,0.031360399996628985,66.70152070000768,"[np.float64(-0.4398148148148148), np.float64(0.37037037037037035)]","[np.float64(0.42685185185185187), np.float64(-0.31296296296296294)]","[0, 0]","[0, 0]","[1, 1]","[0.0006442999874707311, 2.1014059000008274]","[None, 'target']",005,001,2025-09-30_20h40.14.319,Visual Search,,2025.1.1,60.061575120214684,2025-09-30 20h40.23.843514 +0530,
32,0,32,[np.float64(0.2361111111111111)],[np.float64(-0.2796296296296296)],[0],[0],[1],[1.0880524000094738],['target'],32,0,32,0,66.77675060002366,,10,66.76168840000173,66.77675060002366,66.77675060002366,0.05928469999344088,67.84981550002703,[np.float64(0.2361111111111111)],[np.float64(-0.2796296296296296)],[0],[0],[1],[1.0880524000094738],['target'],005,001,2025-09-30_20h40.14.319,Visual Search,,2025.1.1,60.061575120214684,2025-09-30 20h40.23.843514 +0530,
33,0,33,"[np.float64(0.2361111111111111), np.float64(-0.24722222222222223)]","[np.float64(-0.28055555555555556), np.float64(0.4009259259259259)]","[0, 0]","[0, 0]","[1, 1]","[0.0008384999819099903, 1.5982871000014711]","[None, 'target']",33,0,33,0,67.87914120001369,,5,67.86900730000343,67.87914120001369,67.87914120001369,0.01900299999397248,69.4675270000007,"[np.float64(0.2361111111111111), np.float64(-0.24722222222222223)]","[np.float64(-0.28055555555555556), np.float64(0.4009259259259259)]","[0, 0]","[0, 0]","[1, 1]","[0.0008384999819099903, 1.5982871000014711]","[None, 'target']",005,001,2025-09-30_20h40.14.319,Visual Search,,2025.1.1,60.061575120214684,2025-09-30 20h40.23.843514 +0530,
34,0,34,[np.float64(-0.02962962962962963)],[np.float64(0.18981481481481483)],[0],[0],[1],[1.2833906000014395],['target'],34,0,34,0,69.52999050001381,,10,69.51568950002547,69.52999050001381,69.52999050001381,0.04748729997663759,70.79914720001398,[np.float64(-0.02962962962962963)],[np.float64(0.18981481481481483)],[0],[0],[1],[1.2833906000014395],['target'],005,001,2025-09-30_20h40.14.319,Visual Search,,2025.1.1,60.061575120214684,2025-09-30 20h40.23.843514 +0530,
35,0,35,"[np.float64(-0.02962962962962963), np.float64(-0.07407407407407407)]","[np.float64(0.18981481481481483), np.float64(0.3712962962962963)]","[0, 0]","[0, 0]","[1, 1]","[0.0006714999908581376, 1.0670276999881025]","[None, 'target']",35,0,35,0,70.84802940001828,,10,70.83230410001124,70.84802940001828,70.84802940001828,0.03285039999173023,71.89940210001078,"[np.float64(-0.02962962962962963), np.float64(-0.07407407407407407)]","[np.float64(0.18981481481481483), np.float64(0.3712962962962963)]","[0, 0]","[0, 0]","[1, 1]","[0.0006714999908581376, 1.0670276999881025]","[None, 'target']",005,001,2025-09-30_20h40.14.319,Visual Search,,2025.1.1,60.061575120214684,2025-09-30 20h40.23.843514 +0530,
36,0,36,"[np.float64(-0.07407407407407407), np.float64(0.13055555555555556)]","[np.float64(0.3712962962962963), np.float64(-0.31296296296296294)]","[0, 0]","[0, 0]","[1, 1]","[0.001353600004222244, 1.5151429999968968]","[None, 'target']",36,0,36,0,71.92931200002204,,5,71.91932169999927,71.92931200002204,71.92931200002204,0.019590099982451648,73.43466290002107,"[np.float64(-0.07407407407407407), np.float64(0.13055555555555556)]","[np.float64(0.3712962962962963), np.float64(-0.31296296296296294)]","[0, 0]","[0, 0]","[1, 1]","[0.001353600004222244, 1.5151429999968968]","[None, 'target']",005,001,2025-09-30_20h40.14.319,Visual Search,,2025.1.1,60.061575120214684,2025-09-30 20h40.23.843514 +0530,
37,0,37,[np.float64(0.18055555555555555)],[np.float64(-0.43148148148148147)],[0],[0],[1],[1.8759877000120468],['target'],37,0,37,0,73.5044439000194,,10,73.48943040001905,73.5044439000194,73.5044439000194,0.05427700001746416,75.36548290000064,[np.float64(0.18055555555555555)],[np.float64(-0.43148148148148147)],[0],[0],[1],[1.8759877000120468],['target'],005,001,2025-09-30_20h40.14.319,Visual Search,,2025.1.1,60.061575120214684,2025-09-30 20h40.23.843514 +0530,
38,0,38,"[np.float64(0.18055555555555555), np.float64(0.09444444444444444)]","[np.float64(-0.43148148148148147), np.float64(0.4787037037037037)]","[0, 0]","[0, 0]","[1, 1]","[0.0009569000103510916, 1.7288803000119515]","[None, 'target']",38,0,38,0,75.3978678000276,,5,75.38710730001912,75.3978678000276,75.3978678000276,0.02145219998783432,77.11605860001873,"[np.float64(0.18055555555555555), np.float64(0.09444444444444444)]","[np.float64(-0.43148148148148147), np.float64(0.4787037037037037)]","[0, 0]","[0, 0]","[1, 1]","[0.0009569000103510916, 1.7288803000119515]","[None, 'target']",005,001,2025-09-30_20h40.14.319,Visual Search,,2025.1.1,60.061575120214684,2025-09-30 20h40.23.843514 +0530,
39,0,39,"[np.float64(0.09444444444444444), np.float64(0.11388888888888889)]","[np.float64(0.4787037037037037), np.float64(-0.007407407407407408)]","[0, 0]","[0, 0]","[1, 1]","[0.0007310999790206552, 1.4171791999833658]","[None, 'target']",39,0,39,0,77.1632757000043,,10,77.14806720000342,77.1632757000043,77.1632757000043,0.03171629999997094,78.56547350002802,"[np.float64(0.09444444444444444), np.float64(0.11388888888888889)]","[np.float64(0.4787037037037037), np.float64(-0.007407407407407408)]","[0, 0]","[0, 0]","[1, 1]","[0.0007310999790206552, 1.4171791999833658]","[None, 'target']",005,001,2025-09-30_20h40.14.319,Visual Search,,2025.1.1,60.061575120214684,2025-09-30 20h40.23.843514 +0530,
40,0,40,"[np.float64(0.11388888888888889), np.float64(0.06759259259259259)]","[np.float64(-0.007407407407407408), np.float64(-0.04537037037037037)]","[0, 0]","[0, 0]","[1, 1]","[0.0007941999938338995, 1.181314499990549]","[None, 'target']",40,0,40,0,78.61741800000891,,10,78.60151850001421,78.61741800000891,78.61741800000891,0.03521959998761304,79.7829819000035,"[np.float64(0.11388888888888889), np.float64(0.06759259259259259)]","[np.float64(-0.007407407407407408), np.float64(-0.04537037037037037)]","[0, 0]","[0, 0]","[1, 1]","[0.0007941999938338995, 1.181314499990549]","[None, 'target']",005,001,2025-09-30_20h40.14.319,Visual Search,,2025.1.1,60.061575120214684,2025-09-30 20h40.23.843514 +0530,
41,0,41,"[np.float64(0.06759259259259259), np.float64(-0.2564814814814815)]","[np.float64(-0.04537037037037037), np.float64(0.005555555555555556)]","[0, 0]","[0, 0]","[1, 1]","[0.000663200014969334, 1.1064983000105713]","[None, 'target']",41,0,41,0,79.82073030000902,,5,79.80934180002077,79.82073030000902,79.82073030000902,0.025995600008172914,80.91597430000547,"[np.float64(0.06759259259259259), np.float64(-0.2564814814814815)]","[np.float64(-0.04537037037037037), np.float64(0.005555555555555556)]","[0, 0]","[0, 0]","[1, 1]","[0.000663200014969334, 1.1064983000105713]","[None, 'target']",005,001,2025-09-30_20h40.14.319,Visual Search,,2025.1.1,60.061575120214684,2025-09-30 20h40.23.843514 +0530,
42,0,42,"[np.float64(-0.2564814814814815), np.float64(-0.05555555555555555)]","[np.float64(0.005555555555555556), np.float64(0.4027777777777778)]","[0, 0]","[0, 0]","[1, 1]","[0.0005557000113185495, 1.9192374999984168]","[None, 'target']",42,0,42,0,80.95850670000073,,5,80.9485114000272,80.95850670000073,80.95850670000073,0.03179629999794997,82.86810100000002,"[np.float64(-0.2564814814814815), np.float64(-0.05555555555555555)]","[np.float64(0.005555555555555556), np.float64(0.4027777777777778)]","[0, 0]","[0, 0]","[1, 1]","[0.0005557000113185495, 1.9192374999984168]","[None, 'target']",005,001,2025-09-30_20h40.14.319,Visual Search,,2025.1.1,60.061575120214684,2025-09-30 20h40.23.843514 +0530,
43,0,43,"[np.float64(-0.05555555555555555), np.float64(0.47685185185185186)]","[np.float64(0.4027777777777778), np.float64(0.3648148148148148)]","[0, 0]","[0, 0]","[1, 1]","[0.0008653999830130488, 1.5028532999858726]","[None, 'target']",43,0,43,0,82.9261577000143,,5,82.91341220002505,82.9261577000143,82.9261577000143,0.04446449998067692,84.41667710000183,"[np.float64(-0.05555555555555555), np.float64(0.47685185185185186)]","[np.float64(0.4027777777777778), np.float64(0.3648148148148148)]","[0, 0]","[0, 0]","[1, 1]","[0.0008653999830130488, 1.5028532999858726]","[None, 'target']",005,001,2025-09-30_20h40.14.319,Visual Search,,2025.1.1,60.061575120214684,2025-09-30 20h40.23.843514 +0530,
44,0,44,"[np.float64(0.47685185185185186), np.float64(0.09444444444444444), np.float64(0.09814814814814815)]","[np.float64(0.3648148148148148), np.float64(-0.22777777777777777), np.float64(-0.225)]","[0, 0, 0]","[0, 0, 0]","[1, 1, 1]","[0.0005489999894052744, 1.4429031999898143, 2.0095277999935206]","[None, None, 'target']",44,0,44,0,84.50349170001573,,10,84.48821780001163,84.50349170001573,84.50349170001573,0.07026069998391904,86.49781500000972,"[np.float64(0.47685185185185186), np.float64(0.09444444444444444), np.float64(0.09814814814814815)]","[np.float64(0.3648148148148148), np.float64(-0.22777777777777777), np.float64(-0.225)]","[0, 0, 0]","[0, 0, 0]","[1, 1, 1]","[0.0005489999894052744, 1.4429031999898143, 2.0095277999935206]","[None, None, 'target']",005,001,2025-09-30_20h40.14.319,Visual Search,,2025.1.1,60.061575120214684,2025-09-30 20h40.23.843514 +0530,
45,0,45,"[np.float64(0.09907407407407408), np.float64(-0.11018518518518519)]","[np.float64(-0.22592592592592592), np.float64(0.462037037037037)]","[0, 0]","[0, 0]","[1, 1]","[0.0009107000078074634, 1.7520963000133634]","[None, 'target']",45,0,45,0,86.5478429000068,,10,86.53124290000414,86.5478429000068,86.5478429000068,0.03318030000082217,88.28340760001447,"[np.float64(0.09907407407407408), np.float64(-0.11018518518518519)]","[np.float64(-0.22592592592592592), np.float64(0.462037037037037)]","[0, 0]","[0, 0]","[1, 1]","[0.0009107000078074634, 1.7520963000133634]","[None, 'target']",005,001,2025-09-30_20h40.14.319,Visual Search,,2025.1.1,60.061575120214684,2025-09-30 20h40.23.843514 +0530,
46,0,46,"[np.float64(-0.11018518518518519), np.float64(0.4027777777777778)]","[np.float64(0.462037037037037), np.float64(-0.2962962962962963)]","[0, 0]","[0, 0]","[1, 1]","[0.0007829999958630651, 1.596056399983354]","[None, 'target']",46,0,46,0,88.33411990001332,,10,88.31783660000656,88.33411990001332,88.33411990001332,0.034236400009831414,89.91401770000812,"[np.float64(-0.11018518518518519), np.float64(0.4027777777777778)]","[np.float64(0.462037037037037), np.float64(-0.2962962962962963)]","[0, 0]","[0, 0]","[1, 1]","[0.0007829999958630651, 1.596056399983354]","[None, 'target']",005,001,2025-09-30_20h40.14.319,Visual Search,,2025.1.1,60.061575120214684,2025-09-30 20h40.23.843514 +0530,
47,0,47,"[np.float64(0.4027777777777778), np.float64(0.2324074074074074)]","[np.float64(-0.2962962962962963), np.float64(-0.1425925925925926)]","[0, 0]","[0, 0]","[1, 1]","[0.000753700005589053, 1.3014437000092585]","[None, 'target']",47,0,47,0,89.95609200000763,,5,89.94618530001026,89.95609200000763,89.95609200000763,0.03178530000150204,91.2477641000005,"[np.float64(0.4027777777777778), np.float64(0.2324074074074074)]","[np.float64(-0.2962962962962963), np.float64(-0.1425925925925926)]","[0, 0]","[0, 0]","[1, 1]","[0.000753700005589053, 1.3014437000092585]","[None, 'target']",005,001,2025-09-30_20h40.14.319,Visual Search,,2025.1.1,60.061575120214684,2025-09-30 20h40.23.843514 +0530,
48,0,48,[np.float64(-0.25462962962962965)],[np.float64(0.46111111111111114)],[0],[0],[1],[1.4303216999978758],['target'],48,0,48,0,91.28233790001832,,5,91.27136410001549,91.28233790001832,91.28233790001832,0.023164000012911856,92.70208950000233,[np.float64(-0.25462962962962965)],[np.float64(0.46111111111111114)],[0],[0],[1],[1.4303216999978758],['target'],005,001,2025-09-30_20h40.14.319,Visual Search,,2025.1.1,60.061575120214684,2025-09-30 20h40.23.843514 +0530,
49,0,49,[np.float64(0.3592592592592593)],[np.float64(0.45555555555555555)],[0],[0],[1],[1.4544883999915328],['target'],49,0,49,0,92.77612410002621,,10,92.76163170000655,92.77612410002621,92.77612410002621,0.05853409998235293,94.21654500000295,[np.float64(0.3592592592592593)],[np.float64(0.45555555555555555)],[0],[0],[1],[1.4544883999915328],['target'],005,001,2025-09-30_20h40.14.319,Visual Search,,2025.1.1,60.061575120214684,2025-09-30 20h40.23.843514 +0530,
50,0,50,[np.float64(-0.058333333333333334)],[np.float64(0.22314814814814815)],[0],[0],[1],[1.2361906000005547],['target'],50,0,50,0,94.27761010001996,,10,94.26318590002484,94.27761010001996,94.27761010001996,0.04535149998264387,95.49961280002026,[np.float64(-0.058333333333333334)],[np.float64(0.22314814814814815)],[0],[0],[1],[1.2361906000005547],['target'],005,001,2025-09-30_20h40.14.319,Visual Search,,2025.1.1,60.061575120214684,2025-09-30 20h40.23.843514 +0530,
51,0,51,"[np.float64(-0.058333333333333334), np.float64(0.2814814814814815)]","[np.float64(0.22314814814814815), np.float64(0.125)]","[0, 0]","[0, 0]","[1, 1]","[0.00097490000189282, 1.1225289999856614]","[None, 'target']",51,0,51,0,95.53794570002356,,5,95.52793370001018,95.53794570002356,95.53794570002356,0.027622299996437505,96.65080350000062,"[np.float64(-0.058333333333333334), np.float64(0.2814814814814815)]","[np.float64(0.22314814814814815), np.float64(0.125)]","[0, 0]","[0, 0]","[1, 1]","[0.00097490000189282, 1.1225289999856614]","[None, 'target']",005,001,2025-09-30_20h40.14.319,Visual Search,,2025.1.1,60.061575120214684,2025-09-30 20h40.23.843514 +0530,
52,0,52,"[np.float64(0.2814814814814815), np.float64(-0.5), np.float64(-0.48703703703703705)]","[np.float64(0.125), np.float64(-0.2074074074074074), np.float64(-0.2101851851851852)]","[0, 0, 0]","[0, 0, 0]","[1, 1, 1]","[0.0013404999917838722, 1.725464599992847, 2.325259900011588]","[None, None, 'target']",52,0,52,0,96.72112040000502,,5,96.70493070001248,96.72112040000502,96.72112040000502,0.053083799983141944,99.03025880001951,"[np.float64(0.2814814814814815), np.float64(-0.5), np.float64(-0.48703703703703705)]","[np.float64(0.125), np.float64(-0.2074074074074074), np.float64(-0.2101851851851852)]","[0, 0, 0]","[0, 0, 0]","[1, 1, 1]","[0.0013404999917838722, 1.725464599992847, 2.325259900011588]","[None, None, 'target']",005,001,2025-09-30_20h40.14.319,Visual Search,,2025.1.1,60.061575120214684,2025-09-30 20h40.23.843514 +0530,
53,0,53,"[np.float64(-0.48703703703703705), np.float64(-0.1814814814814815)]","[np.float64(-0.2101851851851852), np.float64(0.35648148148148145)]","[0, 0]","[0, 0]","[1, 1]","[0.0005253999843262136, 1.820925799984252]","[None, 'target']",53,0,53,0,99.09297300002072,,10,99.07534720000695,99.09297300002072,99.09297300002072,0.044764400023268536,100.89633000001777,"[np.float64(-0.48703703703703705), np.float64(-0.1814814814814815)]","[np.float64(-0.2101851851851852), np.float64(0.35648148148148145)]","[0, 0]","[0, 0]","[1, 1]","[0.0005253999843262136, 1.820925799984252]","[None, 'target']",005,001,2025-09-30_20h40.14.319,Visual Search,,2025.1.1,60.061575120214684,2025-09-30 20h40.23.843514 +0530,
54,0,54,"[np.float64(-0.1814814814814815), np.float64(0.11481481481481481)]","[np.float64(0.35648148148148145), np.float64(0.39166666666666666)]","[0, 0]","[0, 0]","[1, 1]","[0.0006548999808728695, 1.4504311999771744]","[None, 'target']",54,0,54,0,100.92294140000013,,5,100.91245170001639,100.92294140000013,100.92294140000013,0.015700199990533292,102.36301720002666,"[np.float64(-0.1814814814814815), np.float64(0.11481481481481481)]","[np.float64(0.35648148148148145), np.float64(0.39166666666666666)]","[0, 0]","[0, 0]","[1, 1]","[0.0006548999808728695, 1.4504311999771744]","[None, 'target']",005,001,2025-09-30_20h40.14.319,Visual Search,,2025.1.1,60.061575120214684,2025-09-30 20h40.23.843514 +0530,
55,0,55,"[np.float64(0.11481481481481481), np.float64(0.032407407407407406)]","[np.float64(0.39166666666666666), np.float64(0.024074074074074074)]","[0, 0]","[0, 0]","[1, 1]","[0.0005053000058978796, 1.3506752000248525]","[None, 'target']",55,0,55,0,102.42810710001504,,10,102.41248230001656,102.42810710001504,102.42810710001504,0.04904220000025816,103.76336660000379,"[np.float64(0.11481481481481481), np.float64(0.032407407407407406)]","[np.float64(0.39166666666666666), np.float64(0.024074074074074074)]","[0, 0]","[0, 0]","[1, 1]","[0.0005053000058978796, 1.3506752000248525]","[None, 'target']",005,001,2025-09-30_20h40.14.319,Visual Search,,2025.1.1,60.061575120214684,2025-09-30 20h40.23.843514 +0530,
56,0,56,"[np.float64(0.032407407407407406), np.float64(0.4962962962962963)]","[np.float64(0.024074074074074074), np.float64(0.27870370370370373)]","[0, 0]","[0, 0]","[1, 1]","[0.00126530000125058, 1.6513854000077117]","[None, 'target']",56,0,56,0,103.80882360000396,,5,103.79739880000125,103.80882360000396,103.80882360000396,0.03344880000804551,105.44889610001701,"[np.float64(0.032407407407407406), np.float64(0.4962962962962963)]","[np.float64(0.024074074074074074), np.float64(0.27870370370370373)]","[0, 0]","[0, 0]","[1, 1]","[0.00126530000125058, 1.6513854000077117]","[None, 'target']",005,001,2025-09-30_20h40.14.319,Visual Search,,2025.1.1,60.061575120214684,2025-09-30 20h40.23.843514 +0530,
57,0,57,"[np.float64(0.4962962962962963), np.float64(-0.11296296296296296)]","[np.float64(0.27870370370370373), np.float64(0.06666666666666667)]","[0, 0]","[0, 0]","[1, 1]","[0.0005887000006623566, 1.299351800000295]","[None, 'target']",57,0,57,0,105.49302270001499,,5,105.48318220002693,105.49302270001499,105.49302270001499,0.03400710001005791,106.78277980000712,"[np.float64(0.4962962962962963), np.float64(-0.11296296296296296)]","[np.float64(0.27870370370370373), np.float64(0.06666666666666667)]","[0, 0]","[0, 0]","[1, 1]","[0.0005887000006623566, 1.299351800000295]","[None, 'target']",005,001,2025-09-30_20h40.14.319,Visual Search,,2025.1.1,60.061575120214684,2025-09-30 20h40.23.843514 +0530,
58,0,58,"[np.float64(-0.11296296296296296), np.float64(-0.4759259259259259)]","[np.float64(0.06666666666666667), np.float64(-0.4287037037037037)]","[0, 0]","[0, 0]","[1, 1]","[0.0010463000216986984, 2.155011300026672]","[None, 'target']",58,0,58,0,106.83749630002421,,5,106.82448160002241,106.83749630002421,106.83749630002421,0.04112969999550842,108.97970830000122,"[np.float64(-0.11296296296296296), np.float64(-0.4759259259259259)]","[np.float64(0.06666666666666667), np.float64(-0.4287037037037037)]","[0, 0]","[0, 0]","[1, 1]","[0.0010463000216986984, 2.155011300026672]","[None, 'target']",005,001,2025-09-30_20h40.14.319,Visual Search,,2025.1.1,60.061575120214684,2025-09-30 20h40.23.843514 +0530,
59,0,59,"[np.float64(-0.4759259259259259), np.float64(-0.04259259259259259)]","[np.float64(-0.4287037037037037), np.float64(0.03888888888888889)]","[0, 0]","[0, 0]","[1, 1]","[0.000887800008058548, 1.2914659999951255]","[None, 'target']",59,0,59,0,109.01736490000621,,5,109.00566220001201,109.01736490000621,109.01736490000621,0.02539200001046993,110.29734100002679,"[np.float64(-0.4759259259259259), np.float64(-0.04259259259259259)]","[np.float64(-0.4287037037037037), np.float64(0.03888888888888889)]","[0, 0]","[0, 0]","[1, 1]","[0.000887800008058548, 1.2914659999951255]","[None, 'target']",005,001,2025-09-30_20h40.14.319,Visual Search,,2025.1.1,60.061575120214684,2025-09-30 20h40.23.843514 +0530,
60,0,60,[np.float64(-0.12129629629629629)],[np.float64(0.10277777777777777)],[0],[0],[1],[0.9481774999876507],['target'],60,0,60,0,110.36746290000156,,10,110.35220480000135,110.36746290000156,110.36746290000156,0.05355449998751283,111.30059660002007,[np.float64(-0.12129629629629629)],[np.float64(0.10277777777777777)],[0],[0],[1],[0.9481774999876507],['target'],005,001,2025-09-30_20h40.14.319,Visual Search,,2025.1.1,60.061575120214684,2025-09-30 20h40.23.843514 +0530,
61,0,61,[np.float64(-0.10648148148148148)],[np.float64(0.23333333333333334)],[0],[0],[1],[1.4152798999857623],['target'],61,0,61,0,111.3412608000217,,5,111.33204250002746,111.3412608000217,111.3412608000217,0.030809199990471825,112.74745020002592,[np.float64(-0.10648148148148148)],[np.float64(0.23333333333333334)],[0],[0],[1],[1.4152798999857623],['target'],005,001,2025-09-30_20h40.14.319,Visual Search,,2025.1.1,60.061575120214684,2025-09-30 20h40.23.843514 +0530,
62,0,62,"[np.float64(-0.10648148148148148), np.float64(0.23055555555555557)]","[np.float64(0.23333333333333334), np.float64(-0.337037037037037)]","[0, 0]","[0, 0]","[1, 1]","[0.0008511999913025647, 1.4673206000006758]","[None, 'target']",62,0,62,0,112.79011580001679,,5,112.77861710000434,112.79011580001679,112.79011580001679,0.030916299991076812,114.24606950001908,"[np.float64(-0.10648148148148148), np.float64(0.23055555555555557)]","[np.float64(0.23333333333333334), np.float64(-0.337037037037037)]","[0, 0]","[0, 0]","[1, 1]","[0.0008511999913025647, 1.4673206000006758]","[None, 'target']",005,001,2025-09-30_20h40.14.319,Visual Search,,2025.1.1,60.061575120214684,2025-09-30 20h40.23.843514 +0530,
63,0,63,"[np.float64(0.23055555555555557), np.float64(0.28703703703703703)]","[np.float64(-0.337037037037037), np.float64(-0.09166666666666666)]","[0, 0]","[0, 0]","[1, 1]","[0.0005719999899156392, 1.101171999995131]","[None, 'target']",63,0,63,0,114.2867249000119,,5,114.27677460000268,114.2867249000119,114.2867249000119,0.02942450001137331,115.37800980001339,"[np.float64(0.23055555555555557), np.float64(0.28703703703703703)]","[np.float64(-0.337037037037037), np.float64(-0.09166666666666666)]","[0, 0]","[0, 0]","[1, 1]","[0.0005719999899156392, 1.101171999995131]","[None, 'target']",005,001,2025-09-30_20h40.14.319,Visual Search,,2025.1.1,60.061575120214684,2025-09-30 20h40.23.843514 +0530,
64,0,64,"[np.float64(0.28703703703703703), np.float64(-0.2898148148148148)]","[np.float64(-0.09166666666666666), np.float64(0.10462962962962963)]","[0, 0]","[0, 0]","[1, 1]","[0.0005890000029467046, 1.5848113000101876]","[None, 'target']",64,0,64,0,115.40630030000466,,5,115.39607510002679,115.40630030000466,115.40630030000466,0.01791259998572059,116.98124360002112,"[np.float64(0.28703703703703703), np.float64(-0.2898148148148148)]","[np.float64(-0.09166666666666666), np.float64(0.10462962962962963)]","[0, 0]","[0, 0]","[1, 1]","[0.0005890000029467046, 1.5848113000101876]","[None, 'target']",005,001,2025-09-30_20h40.14.319,Visual Search,,2025.1.1,60.061575120214684,2025-09-30 20h40.23.843514 +0530,
65,0,65,[np.float64(-0.2222222222222222)],[np.float64(0.42407407407407405)],[0],[0],[1],[1.531957400002284],['target'],65,0,65,0,117.0258628000156,,5,117.01703680001083,117.0258628000156,117.0258628000156,0.034654099988983944,118.56158120001783,[np.float64(-0.2222222222222222)],[np.float64(0.42407407407407405)],[0],[0],[1],[1.531957400002284],['target'],005,001,2025-09-30_20h40.14.319,Visual Search,,2025.1.1,60.061575120214684,2025-09-30 20h40.23.843514 +0530,
66,0,66,[np.float64(0.35648148148148145)],[np.float64(0.08425925925925926)],[0],[0],[1],[1.8911859999934677],['target'],66,0,66,0,118.61832360000699,,10,118.60333140002331,118.61832360000699,118.61832360000699,0.04121419999864884,120.49466799999936,[np.float64(0.35648148148148145)],[np.float64(0.08425925925925926)],[0],[0],[1],[1.8911859999934677],['target'],005,001,2025-09-30_20h40.14.319,Visual Search,,2025.1.1,60.061575120214684,2025-09-30 20h40.23.843514 +0530,
67,0,67,[np.float64(0.4981481481481482)],[np.float64(0.2490740740740741)],[0],[0],[1],[1.0802451000199653],['target'],67,0,67,0,120.52664320002077,,5,120.51650240001618,120.52664320002077,120.52664320002077,0.021459300012793392,121.59696900000563,[np.float64(0.4981481481481482)],[np.float64(0.2490740740740741)],[0],[0],[1],[1.0802451000199653],['target'],005,001,2025-09-30_20h40.14.319,Visual Search,,2025.1.1,60.061575120214684,2025-09-30 20h40.23.843514 +0530,
68,0,68,[np.float64(-0.3861111111111111)],[np.float64(0.2074074074074074)],[0],[0],[1],[1.208841100014979],['target'],68,0,68,0,121.62854140001582,,5,121.61895250002271,121.62854140001582,121.62854140001582,0.02140030000009574,122.82794770001783,[np.float64(-0.3861111111111111)],[np.float64(0.2074074074074074)],[0],[0],[1],[1.208841100014979],['target'],005,001,2025-09-30_20h40.14.319,Visual Search,,2025.1.1,60.061575120214684,2025-09-30 20h40.23.843514 +0530,
69,0,69,"[np.float64(-0.3861111111111111), np.float64(-0.4583333333333333), np.float64(-0.4537037037037037)]","[np.float64(0.2074074074074074), np.float64(0.16018518518518518), np.float64(0.16203703703703703)]","[0, 0, 0]","[0, 0, 0]","[1, 1, 1]","[0.0006696999771520495, 0.9831503999885172, 1.5349572999984957]","[None, None, 'target']",69,0,69,0,122.87257960002171,,5,122.86078330001328,122.87257960002171,122.87257960002171,0.03236449998803437,124.39595920001739,"[np.float64(-0.3861111111111111), np.float64(-0.4583333333333333), np.float64(-0.4537037037037037)]","[np.float64(0.2074074074074074), np.float64(0.16018518518518518), np.float64(0.16203703703703703)]","[0, 0, 0]","[0, 0, 0]","[1, 1, 1]","[0.0006696999771520495, 0.9831503999885172, 1.5349572999984957]","[None, None, 'target']",005,001,2025-09-30_20h40.14.319,Visual Search,,2025.1.1,60.061575120214684,2025-09-30 20h40.23.843514 +0530,
70,0,70,[np.float64(0.012037037037037037)],[np.float64(-0.4351851851851852)],[0],[0],[1],[1.694012499996461],['target'],70,0,70,0,124.44392550000339,,5,124.43405000001076,124.44392550000339,124.44392550000339,0.03731089999200776,126.12832300001173,[np.float64(0.012037037037037037)],[np.float64(-0.4351851851851852)],[0],[0],[1],[1.694012499996461],['target'],005,001,2025-09-30_20h40.14.319,Visual Search,,2025.1.1,60.061575120214684,2025-09-30 20h40.23.843514 +0530,
71,0,71,"[np.float64(0.012037037037037037), np.float64(0.027777777777777776)]","[np.float64(-0.4351851851851852), np.float64(-0.3)]","[0, 0]","[0, 0]","[1, 1]","[0.0006209999846760184, 1.0984882999910042]","[None, 'target']",71,0,71,0,126.17440700001316,,5,126.16261100000702,126.17440700001316,126.17440700001316,0.03370539998286404,127.26131270002224,"[np.float64(0.012037037037037037), np.float64(0.027777777777777776)]","[np.float64(-0.4351851851851852), np.float64(-0.3)]","[0, 0]","[0, 0]","[1, 1]","[0.0006209999846760184, 1.0984882999910042]","[None, 'target']",005,001,2025-09-30_20h40.14.319,Visual Search,,2025.1.1,60.061575120214684,2025-09-30 20h40.23.843514 +0530,
72,0,72,[np.float64(-0.23703703703703705)],[np.float64(0.3314814814814815)],[0],[0],[1],[1.3472399000020232],['target'],72,0,72,0,127.32806440000422,,10,127.31299200002104,127.32806440000422,127.32806440000422,0.05101450000074692,128.66029980001622,[np.float64(-0.23703703703703705)],[np.float64(0.3314814814814815)],[0],[0],[1],[1.3472399000020232],['target'],005,001,2025-09-30_20h40.14.319,Visual Search,,2025.1.1,60.061575120214684,2025-09-30 20h40.23.843514 +0530,
73,0,73,"[np.float64(-0.23703703703703705), np.float64(0.24814814814814815)]","[np.float64(0.3314814814814815), np.float64(-0.14537037037037037)]","[0, 0]","[0, 0]","[1, 1]","[0.0008889999880921096, 1.3169168999884278]","[None, 'target']",73,0,73,0,128.68893240002217,,5,128.67827180001768,128.68893240002217,128.68893240002217,0.01780130001134239,129.99543150002137,"[np.float64(-0.23703703703703705), np.float64(0.24814814814814815)]","[np.float64(0.3314814814814815), np.float64(-0.14537037037037037)]","[0, 0]","[0, 0]","[1, 1]","[0.0008889999880921096, 1.3169168999884278]","[None, 'target']",005,001,2025-09-30_20h40.14.319,Visual Search,,2025.1.1,60.061575120214684,2025-09-30 20h40.23.843514 +0530,
74,0,74,"[np.float64(0.24814814814814815), np.float64(-0.05)]","[np.float64(-0.14537037037037037), np.float64(-0.31203703703703706)]","[0, 0]","[0, 0]","[1, 1]","[0.0011528999893926084, 1.0749137999955565]","[None, 'target']",74,0,74,0,130.05439570001909,,5,130.03941650001798,130.05439570001909,130.05439570001909,0.04332610001438297,131.11471890000394,"[np.float64(0.24814814814814815), np.float64(-0.05)]","[np.float64(-0.14537037037037037), np.float64(-0.31203703703703706)]","[0, 0]","[0, 0]","[1, 1]","[0.0011528999893926084, 1.0749137999955565]","[None, 'target']",005,001,2025-09-30_20h40.14.319,Visual Search,,2025.1.1,60.061575120214684,2025-09-30 20h40.23.843514 +0530,
75,0,75,"[np.float64(-0.05), np.float64(0.30648148148148147), np.float64(0.2111111111111111)]","[np.float64(-0.3111111111111111), np.float64(0.2064814814814815), np.float64(0.2101851851851852)]","[0, 0, 0]","[0, 0, 0]","[1, 1, 1]","[0.0011817000049632043, 3.603590999991866, 4.451663099986035]","[None, None, 'target']",75,0,75,0,131.17054220000864,,5,131.1581444000185,131.17054220000864,131.17054220000864,0.042315400001825765,135.60994220001157,"[np.float64(-0.05), np.float64(0.30648148148148147), np.float64(0.2111111111111111)]","[np.float64(-0.3111111111111111), np.float64(0.2064814814814815), np.float64(0.2101851851851852)]","[0, 0, 0]","[0, 0, 0]","[1, 1, 1]","[0.0011817000049632043, 3.603590999991866, 4.451663099986035]","[None, None, 'target']",005,001,2025-09-30_20h40.14.319,Visual Search,,2025.1.1,60.061575120214684,2025-09-30 20h40.23.843514 +0530,
76,0,76,[np.float64(0.17037037037037037)],[np.float64(-0.32037037037037036)],[0],[0],[1],[1.2732250000117347],['target'],76,0,76,0,135.6486142000067,,5,135.63951620002626,135.6486142000067,135.6486142000067,0.02906760000041686,136.91301630000817,[np.float64(0.17037037037037037)],[np.float64(-0.32037037037037036)],[0],[0],[1],[1.2732250000117347],['target'],005,001,2025-09-30_20h40.14.319,Visual Search,,2025.1.1,60.061575120214684,2025-09-30 20h40.23.843514 +0530,
77,0,77,[np.float64(-0.3861111111111111)],[np.float64(0.44722222222222224)],[0],[0],[1],[1.99358179999399],['target'],77,0,77,0,136.9832273000211,,10,136.96804820001125,136.9832273000211,136.9832273000211,0.053870499978074804,138.96191490002093,[np.float64(-0.3861111111111111)],[np.float64(0.44722222222222224)],[0],[0],[1],[1.99358179999399],['target'],005,001,2025-09-30_20h40.14.319,Visual Search,,2025.1.1,60.061575120214684,2025-09-30 20h40.23.843514 +0530,
78,0,78,[np.float64(-0.39814814814814814)],[np.float64(-0.28055555555555556)],[0],[0],[1],[1.5313588999852072],['target'],78,0,78,0,139.02739820000716,,10,139.01181150000775,139.02739820000716,139.02739820000716,0.04907320000347681,140.54330570000457,[np.float64(-0.39814814814814814)],[np.float64(-0.28055555555555556)],[0],[0],[1],[1.5313588999852072],['target'],005,001,2025-09-30_20h40.14.319,Visual Search,,2025.1.1,60.061575120214684,2025-09-30 20h40.23.843514 +0530,
79,0,79,[np.float64(-0.16203703703703703)],[np.float64(0.19814814814814816)],[0],[0],[1],[1.2941856000106782],['target'],79,0,79,0,140.5790057000122,,5,140.5685004000261,140.5790057000122,140.5790057000122,0.024918599985539913,141.86291770002572,[np.float64(-0.16203703703703703)],[np.float64(0.19814814814814816)],[0],[0],[1],[1.2941856000106782],['target'],005,001,2025-09-30_20h40.14.319,Visual Search,,2025.1.1,60.061575120214684,2025-09-30 20h40.23.843514 +0530,
80,0,80,[np.float64(0.07592592592592592)],[np.float64(0.4324074074074074)],[0],[0],[1],[1.5032594999938738],['target'],80,0,80,0,141.94096659999923,,10,141.9259774000093,141.94096659999923,141.94096659999923,0.06248669998603873,143.42950060000294,[np.float64(0.07592592592592592)],[np.float64(0.4324074074074074)],[0],[0],[1],[1.5032594999938738],['target'],005,001,2025-09-30_20h40.14.319,Visual Search,,2025.1.1,60.061575120214684,2025-09-30 20h40.23.843514 +0530,
81,0,81,"[np.float64(0.07592592592592592), np.float64(0.45555555555555555)]","[np.float64(0.4324074074074074), np.float64(0.26296296296296295)]","[0, 0]","[0, 0]","[1, 1]","[0.0007521000225096941, 1.4628044000128284]","[None, 'target']",81,0,81,0,143.47291820001556,,5,143.46281080000335,143.47291820001556,143.47291820001556,0.03251039999304339,144.9256930000265,"[np.float64(0.07592592592592592), np.float64(0.45555555555555555)]","[np.float64(0.4324074074074074), np.float64(0.26296296296296295)]","[0, 0]","[0, 0]","[1, 1]","[0.0007521000225096941, 1.4628044000128284]","[None, 'target']",005,001,2025-09-30_20h40.14.319,Visual Search,,2025.1.1,60.061575120214684,2025-09-30 20h40.23.843514 +0530,
82,0,82,"[np.float64(0.45555555555555555), np.float64(-0.028703703703703703)]","[np.float64(0.26296296296296295), np.float64(0.38981481481481484)]","[0, 0]","[0, 0]","[1, 1]","[0.0009332000045105815, 1.176730300008785]","[None, 'target']",82,0,82,0,144.96289720002096,,5,144.94883880001726,144.96289720002096,144.96289720002096,0.022974899999098852,146.12595740001416,"[np.float64(0.45555555555555555), np.float64(-0.028703703703703703)]","[np.float64(0.26296296296296295), np.float64(0.38981481481481484)]","[0, 0]","[0, 0]","[1, 1]","[0.0009332000045105815, 1.176730300008785]","[None, 'target']",005,001,2025-09-30_20h40.14.319,Visual Search,,2025.1.1,60.061575120214684,2025-09-30 20h40.23.843514 +0530,
83,0,83,[np.float64(-0.22314814814814815)],[np.float64(-0.3611111111111111)],[0],[0],[1],[1.490108700003475],['target'],83,0,83,0,146.18699010001728,,10,146.17220510001061,146.18699010001728,146.18699010001728,0.04509159998269752,147.6624346000026,[np.float64(-0.22314814814814815)],[np.float64(-0.3611111111111111)],[0],[0],[1],[1.490108700003475],['target'],005,001,2025-09-30_20h40.14.319,Visual Search,,2025.1.1,60.061575120214684,2025-09-30 20h40.23.843514 +0530,
84,0,84,"[np.float64(-0.225), np.float64(0.175), np.float64(0.16203703703703703)]","[np.float64(-0.36018518518518516), np.float64(-0.4787037037037037), np.float64(-0.4842592592592593)]","[0, 0, 0]","[0, 0, 0]","[1, 1, 1]","[0.0008519000257365406, 1.3121105000027455, 1.7956306000123732]","[None, None, 'target']",84,0,84,0,147.70667260000482,,5,147.69656920002308,147.70667260000482,147.70667260000482,0.03373220001230948,149.49233140001888,"[np.float64(-0.225), np.float64(0.175), np.float64(0.16203703703703703)]","[np.float64(-0.36018518518518516), np.float64(-0.4787037037037037), np.float64(-0.4842592592592593)]","[0, 0, 0]","[0, 0, 0]","[1, 1, 1]","[0.0008519000257365406, 1.3121105000027455, 1.7956306000123732]","[None, None, 'target']",005,001,2025-09-30_20h40.14.319,Visual Search,,2025.1.1,60.061575120214684,2025-09-30 20h40.23.843514 +0530,
85,0,85,[np.float64(-0.43796296296296294)],[np.float64(-0.2824074074074074)],[0],[0],[1],[1.9523505000106525],['target'],85,0,85,0,149.55492560000857,,10,149.54020210000454,149.55492560000857,149.55492560000857,0.04747670001233928,151.49300730001414,[np.float64(-0.43796296296296294)],[np.float64(-0.2824074074074074)],[0],[0],[1],[1.9523505000106525],['target'],005,001,2025-09-30_20h40.14.319,Visual Search,,2025.1.1,60.061575120214684,2025-09-30 20h40.23.843514 +0530,
86,0,86,[np.float64(-0.1648148148148148)],[np.float64(-0.1675925925925926)],[0],[0],[1],[1.3126254999951925],['target'],86,0,86,0,151.5626131000172,,10,151.54745720000938,151.5626131000172,151.5626131000172,0.053224200004478917,152.86029290000442,[np.float64(-0.1648148148148148)],[np.float64(-0.1675925925925926)],[0],[0],[1],[1.3126254999951925],['target'],005,001,2025-09-30_20h40.14.319,Visual Search,,2025.1.1,60.061575120214684,2025-09-30 20h40.23.843514 +0530,
87,0,87,"[np.float64(-0.1648148148148148), np.float64(0.48055555555555557)]","[np.float64(-0.1685185185185185), np.float64(-0.23055555555555557)]","[0, 0]","[0, 0]","[1, 1]","[0.0007741999870631844, 1.5377212000021245]","[None, 'target']",87,0,87,0,152.89835620002123,,5,152.8880843000079,152.89835620002123,152.89835620002123,0.027143999992404133,154.42618750000838,"[np.float64(-0.1648148148148148), np.float64(0.48055555555555557)]","[np.float64(-0.1685185185185185), np.float64(-0.23055555555555557)]","[0, 0]","[0, 0]","[1, 1]","[0.0007741999870631844, 1.5377212000021245]","[None, 'target']",005,001,2025-09-30_20h40.14.319,Visual Search,,2025.1.1,60.061575120214684,2025-09-30 20h40.23.843514 +0530,
88,0,88,"[np.float64(0.48148148148148145), np.float64(-0.25833333333333336)]","[np.float64(-0.23055555555555557), np.float64(0.08703703703703704)]","[0, 0]","[0, 0]","[1, 1]","[0.0010176000068895519, 1.6457120999984909]","[None, 'target']",88,0,88,0,154.47653030001675,,5,154.46387150001829,154.47653030001675,154.47653030001675,0.036581399996066466,156.1097825000179,"[np.float64(0.48148148148148145), np.float64(-0.25833333333333336)]","[np.float64(-0.23055555555555557), np.float64(0.08703703703703704)]","[0, 0]","[0, 0]","[1, 1]","[0.0010176000068895519, 1.6457120999984909]","[None, 'target']",005,001,2025-09-30_20h40.14.319,Visual Search,,2025.1.1,60.061575120214684,2025-09-30 20h40.23.843514 +0530,
89,0,89,[np.float64(-0.17407407407407408)],[np.float64(-0.3037037037037037)],[0],[0],[1],[1.7756897000072058],['target'],89,0,89,0,156.1829609000124,,10,156.16566810000222,156.1829609000124,156.1829609000124,0.054926699987845495,157.94142210000427,[np.float64(-0.17407407407407408)],[np.float64(-0.3037037037037037)],[0],[0],[1],[1.7756897000072058],['target'],005,001,2025-09-30_20h40.14.319,Visual Search,,2025.1.1,60.061575120214684,2025-09-30 20h40.23.843514 +0530,
90,0,90,"[np.float64(-0.17407407407407408), np.float64(-0.24074074074074073)]","[np.float64(-0.3037037037037037), np.float64(-0.15648148148148147)]","[0, 0]","[0, 0]","[0, 1]","[0.001455499994335696, 1.1170028999913484]","[None, 'target']",90,0,90,0,157.9909904000233,,10,157.97471070001484,157.9909904000233,157.9909904000233,0.0331300999969244,159.0918308000255,"[np.float64(-0.17407407407407408), np.float64(-0.24074074074074073)]","[np.float64(-0.3037037037037037), np.float64(-0.15648148148148147)]","[0, 0]","[0, 0]","[0, 1]","[0.001455499994335696, 1.1170028999913484]","[None, 'target']",005,001,2025-09-30_20h40.14.319,Visual Search,,2025.1.1,60.061575120214684,2025-09-30 20h40.23.843514 +0530,
91,0,91,[np.float64(0.1111111111111111)],[np.float64(0.03611111111111111)],[0],[0],[1],[1.3031429999973625],['target'],91,0,91,0,159.15182310002274,,10,159.1375270000135,159.15182310002274,159.15182310002274,0.0452958999958355,160.440748300025,[np.float64(0.1111111111111111)],[np.float64(0.03611111111111111)],[0],[0],[1],[1.3031429999973625],['target'],005,001,2025-09-30_20h40.14.319,Visual Search,,2025.1.1,60.061575120214684,2025-09-30 20h40.23.843514 +0530,
92,0,92,"[np.float64(0.1111111111111111), np.float64(-0.375)]","[np.float64(0.03611111111111111), np.float64(-0.30833333333333335)]","[0, 0]","[0, 0]","[1, 1]","[0.0007067999977152795, 1.9121960999909788]","[None, 'target']",92,0,92,0,160.47490610001842,,5,160.46226430000388,160.47490610001842,160.47490610001842,0.021235499996691942,162.37470160002704,"[np.float64(0.1111111111111111), np.float64(-0.375)]","[np.float64(0.03611111111111111), np.float64(-0.30833333333333335)]","[0, 0]","[0, 0]","[1, 1]","[0.0007067999977152795, 1.9121960999909788]","[None, 'target']",005,001,2025-09-30_20h40.14.319,Visual Search,,2025.1.1,60.061575120214684,2025-09-30 20h40.23.843514 +0530,
93,0,93,"[np.float64(-0.375), np.float64(-0.49537037037037035)]","[np.float64(-0.30833333333333335), np.float64(-0.4)]","[0, 0]","[0, 0]","[1, 1]","[0.0010084999958053231, 1.1786813999933656]","[None, 'target']",93,0,93,0,162.42765840000357,,5,162.41342960001202,162.42765840000357,162.42765840000357,0.03825469998992048,163.59232530000736,"[np.float64(-0.375), np.float64(-0.49537037037037035)]","[np.float64(-0.30833333333333335), np.float64(-0.4)]","[0, 0]","[0, 0]","[1, 1]","[0.0010084999958053231, 1.1786813999933656]","[None, 'target']",005,001,2025-09-30_20h40.14.319,Visual Search,,2025.1.1,60.061575120214684,2025-09-30 20h40.23.843514 +0530,
94,0,94,"[np.float64(-0.49537037037037035), np.float64(0.10092592592592593)]","[np.float64(-0.4), np.float64(-0.31296296296296294)]","[0, 0]","[0, 0]","[1, 1]","[0.0005418999935500324, 1.4619472999766003]","[None, 'target']",94,0,94,0,163.66168080002535,,10,163.64664780002204,163.66168080002535,163.66168080002535,0.053609800001140684,165.10899200002314,"[np.float64(-0.49537037037037035), np.float64(0.10092592592592593)]","[np.float64(-0.4), np.float64(-0.31296296296296294)]","[0, 0]","[0, 0]","[1, 1]","[0.0005418999935500324, 1.4619472999766003]","[None, 'target']",005,001,2025-09-30_20h40.14.319,Visual Search,,2025.1.1,60.061575120214684,2025-09-30 20h40.23.843514 +0530,
95,0,95,"[np.float64(0.10092592592592593), np.float64(0.4962962962962963)]","[np.float64(-0.31296296296296294), np.float64(-0.0712962962962963)]","[0, 0]","[0, 0]","[1, 1]","[0.001028700004098937, 1.4248044000123627]","[None, 'target']",95,0,95,0,165.16064960000222,,5,165.14983120001853,165.16064960000222,165.16064960000222,0.03943879998405464,166.57485260002431,"[np.float64(0.10092592592592593), np.float64(0.4962962962962963)]","[np.float64(-0.31296296296296294), np.float64(-0.0712962962962963)]","[0, 0]","[0, 0]","[1, 1]","[0.001028700004098937, 1.4248044000123627]","[None, 'target']",005,001,2025-09-30_20h40.14.319,Visual Search,,2025.1.1,60.061575120214684,2025-09-30 20h40.23.843514 +0530,
96,0,96,[np.float64(-0.3574074074074074)],[np.float64(-0.13240740740740742)],[0],[0],[1],[1.5829115000087768],['target'],96,0,96,0,166.63782280002488,,10,166.62348240002757,166.63782280002488,166.63782280002488,0.04789419998996891,168.20645650001825,[np.float64(-0.3574074074074074)],[np.float64(-0.13240740740740742)],[0],[0],[1],[1.5829115000087768],['target'],005,001,2025-09-30_20h40.14.319,Visual Search,,2025.1.1,60.061575120214684,2025-09-30 20h40.23.843514 +0530,
97,0,97,"[np.float64(-0.3574074074074074), np.float64(0.027777777777777776)]","[np.float64(-0.13240740740740742), np.float64(-0.30462962962962964)]","[0, 0]","[0, 0]","[1, 1]","[0.0006441000150516629, 1.1858304000052158]","[None, 'target']",97,0,97,0,168.25311810002313,,10,168.2369405000063,168.25311810002313,168.25311810002313,0.030284999986179173,169.4228693000041,"[np.float64(-0.3574074074074074), np.float64(0.027777777777777776)]","[np.float64(-0.13240740740740742), np.float64(-0.30462962962962964)]","[0, 0]","[0, 0]","[1, 1]","[0.0006441000150516629, 1.1858304000052158]","[None, 'target']",005,001,2025-09-30_20h40.14.319,Visual Search,,2025.1.1,60.061575120214684,2025-09-30 20h40.23.843514 +0530,
98,0,98,"[np.float64(0.027777777777777776), np.float64(-0.41944444444444445), np.float64(-0.4351851851851852), np.float64(-0.46944444444444444)]","[np.float64(-0.30462962962962964), np.float64(-0.26944444444444443), np.float64(-0.2601851851851852), np.float64(-0.25462962962962965)]","[0, 0, 0, 0]","[0, 0, 0, 0]","[1, 1, 1, 1]","[0.0007532000017818063, 1.4913381999940611, 1.9364295999985188, 2.554238400014583]","[None, None, None, 'target']",98,0,98,0,169.46838460001163,,10,169.45317820002674,169.46838460001163,169.46838460001163,0.030031300004338846,172.00781290000305,"[np.float64(0.027777777777777776), np.float64(-0.41944444444444445), np.float64(-0.4351851851851852), np.float64(-0.46944444444444444)]","[np.float64(-0.30462962962962964), np.float64(-0.26944444444444443), np.float64(-0.2601851851851852), np.float64(-0.25462962962962965)]","[0, 0, 0, 0]","[0, 0, 0, 0]","[1, 1, 1, 1]","[0.0007532000017818063, 1.4913381999940611, 1.9364295999985188, 2.554238400014583]","[None, None, None, 'target']",005,001,2025-09-30_20h40.14.319,Visual Search,,2025.1.1,60.061575120214684,2025-09-30 20h40.23.843514 +0530,
99,0,99,[np.float64(0.43703703703703706)],[np.float64(0.10648148148148148)],[0],[0],[1],[1.4614121999766212],['target'],99,0,99,0,172.05630180001026,,5,172.0472418999998,172.05630180001026,172.05630180001026,0.038008199975593016,173.50880800001323,[np.float64(0.43703703703703706)],[np.float64(0.10648148148148148)],[0],[0],[1],[1.4614121999766212],['target'],005,001,2025-09-30_20h40.14.319,Visual Search,,2025.1.1,60.061575120214684,2025-09-30 20h40.23.843514 +0530,
100,0,100,"[np.float64(0.4361111111111111), np.float64(-0.44537037037037036)]","[np.float64(0.10740740740740741), np.float64(0.08703703703703704)]","[0, 0]","[0, 0]","[1, 1]","[0.0008795000030659139, 1.9406362000154331]","[None, 'target']",100,0,100,0,173.56293970000115,,5,173.5508519000141,173.56293970000115,173.56293970000115,0.04153539999970235,175.49189300002763,"[np.float64(0.4361111111111111), np.float64(-0.44537037037037036)]","[np.float64(0.10740740740740741), np.float64(0.08703703703703704)]","[0, 0]","[0, 0]","[1, 1]","[0.0008795000030659139, 1.9406362000154331]","[None, 'target']",005,001,2025-09-30_20h40.14.319,Visual Search,,2025.1.1,60.061575120214684,2025-09-30 20h40.23.843514 +0530,
101,0,101,[np.float64(0.15648148148148147)],[np.float64(0.4675925925925926)],[0],[0],[1],[1.400615699996706],['target'],101,0,101,0,175.53423640000983,,5,175.5248833000078,175.53423640000983,175.53423640000983,0.0318369000160601,176.92573410001933,[np.float64(0.15648148148148147)],[np.float64(0.4675925925925926)],[0],[0],[1],[1.400615699996706],['target'],005,001,2025-09-30_20h40.14.319,Visual Search,,2025.1.1,60.061575120214684,2025-09-30 20h40.23.843514 +0530,
102,0,102,"[np.float64(0.15648148148148147), np.float64(0.04722222222222222)]","[np.float64(0.4675925925925926), np.float64(0.2564814814814815)]","[0, 0]","[0, 0]","[1, 1]","[0.0005377000197768211, 1.104977000009967]","[None, 'target']",102,0,102,0,177.0033681000059,,10,176.98771190000116,177.0033681000059,177.0033681000059,0.06125130000873469,178.09319250000408,"[np.float64(0.15648148148148147), np.float64(0.04722222222222222)]","[np.float64(0.4675925925925926), np.float64(0.2564814814814815)]","[0, 0]","[0, 0]","[1, 1]","[0.0005377000197768211, 1.104977000009967]","[None, 'target']",005,001,2025-09-30_20h40.14.319,Visual Search,,2025.1.1,60.061575120214684,2025-09-30 20h40.23.843514 +0530,
103,0,103,"[np.float64(0.04814814814814815), np.float64(-0.05092592592592592)]","[np.float64(0.2564814814814815), np.float64(-0.16944444444444445)]","[0, 0]","[0, 0]","[1, 1]","[0.0021105999767314643, 1.2379446999984793]","[None, 'target']",103,0,103,0,178.14915380001185,,5,178.13692180000362,178.14915380001185,178.14915380001185,0.0421929000003729,179.37524300001678,"[np.float64(0.04814814814814815), np.float64(-0.05092592592592592)]","[np.float64(0.2564814814814815), np.float64(-0.16944444444444445)]","[0, 0]","[0, 0]","[1, 1]","[0.0021105999767314643, 1.2379446999984793]","[None, 'target']",005,001,2025-09-30_20h40.14.319,Visual Search,,2025.1.1,60.061575120214684,2025-09-30 20h40.23.843514 +0530,
104,0,104,"[np.float64(-0.05092592592592592), np.float64(-0.049074074074074076)]","[np.float64(-0.16944444444444445), np.float64(0.37777777777777777)]","[0, 0]","[0, 0]","[1, 1]","[0.000535300001502037, 1.599990099988645]","[None, 'target']",104,0,104,0,179.45644740000716,,10,179.44059650000418,179.45644740000716,179.45644740000716,0.06417170001077466,181.04080330001307,"[np.float64(-0.05092592592592592), np.float64(-0.049074074074074076)]","[np.float64(-0.16944444444444445), np.float64(0.37777777777777777)]","[0, 0]","[0, 0]","[1, 1]","[0.000535300001502037, 1.599990099988645]","[None, 'target']",005,001,2025-09-30_20h40.14.319,Visual Search,,2025.1.1,60.061575120214684,2025-09-30 20h40.23.843514 +0530,
105,0,105,"[np.float64(-0.049074074074074076), np.float64(-0.5)]","[np.float64(0.37777777777777777), np.float64(0.35648148148148145)]","[0, 0]","[0, 0]","[1, 1]","[0.0008624999900348485, 1.376640500006033]","[None, 'target']",105,0,105,0,181.0905899000063,,5,181.08075450002798,181.0905899000063,181.0905899000063,0.039320899988524616,182.457656100014,"[np.float64(-0.049074074074074076), np.float64(-0.5)]","[np.float64(0.37777777777777777), np.float64(0.35648148148148145)]","[0, 0]","[0, 0]","[1, 1]","[0.0008624999900348485, 1.376640500006033]","[None, 'target']",005,001,2025-09-30_20h40.14.319,Visual Search,,2025.1.1,60.061575120214684,2025-09-30 20h40.23.843514 +0530,
106,0,106,"[np.float64(-0.49907407407407406), np.float64(0.4740740740740741)]","[np.float64(0.35555555555555557), np.float64(-0.15)]","[0, 0]","[0, 0]","[1, 1]","[0.0011713000130839646, 1.7433526999957394]","[None, 'target']",106,0,106,0,182.52468230001978,,5,182.5111162000103,182.52468230001978,182.52468230001978,0.05282809998607263,184.2545396000205,"[np.float64(-0.49907407407407406), np.float64(0.4740740740740741)]","[np.float64(0.35555555555555557), np.float64(-0.15)]","[0, 0]","[0, 0]","[1, 1]","[0.0011713000130839646, 1.7433526999957394]","[None, 'target']",005,001,2025-09-30_20h40.14.319,Visual Search,,2025.1.1,60.061575120214684,2025-09-30 20h40.23.843514 +0530,
107,0,107,"[np.float64(0.4740740740740741), np.float64(0.11296296296296296)]","[np.float64(-0.15), np.float64(0.075)]","[0, 0]","[0, 0]","[1, 1]","[0.0005528999899979681, 1.2697570999735035]","[None, 'target']",107,0,107,0,184.31727780000074,,10,184.30160810000962,184.31727780000074,184.31727780000074,0.04683110001496971,185.5715032000153,"[np.float64(0.4740740740740741), np.float64(0.11296296296296296)]","[np.float64(-0.15), np.float64(0.075)]","[0, 0]","[0, 0]","[1, 1]","[0.0005528999899979681, 1.2697570999735035]","[None, 'target']",005,001,2025-09-30_20h40.14.319,Visual Search,,2025.1.1,60.061575120214684,2025-09-30 20h40.23.843514 +0530,
108,0,108,"[np.float64(0.11296296296296296), np.float64(0.18888888888888888)]","[np.float64(0.075), np.float64(-0.3333333333333333)]","[0, 0]","[0, 0]","[1, 1]","[0.0016861000040080398, 2.5638297999976203]","[None, 'target']",108,0,108,0,185.61977550000302,,5,185.60789370001294,185.61977550000302,185.61977550000302,0.03597749999607913,188.1718437000236,"[np.float64(0.11296296296296296), np.float64(0.18888888888888888)]","[np.float64(0.075), np.float64(-0.3333333333333333)]","[0, 0]","[0, 0]","[1, 1]","[0.0016861000040080398, 2.5638297999976203]","[None, 'target']",005,001,2025-09-30_20h40.14.319,Visual Search,,2025.1.1,60.061575120214684,2025-09-30 20h40.23.843514 +0530,
109,0,109,"[np.float64(0.18888888888888888), np.float64(0.38055555555555554)]","[np.float64(-0.3333333333333333), np.float64(0.15555555555555556)]","[0, 0]","[0, 0]","[1, 1]","[0.000603599997702986, 1.7545748999982607]","[None, 'target']",109,0,109,0,188.20977690001018,,5,188.20008140002028,188.20977690001018,188.20977690001018,0.027818899980047718,189.95488920001662,"[np.float64(0.18888888888888888), np.float64(0.38055555555555554)]","[np.float64(-0.3333333333333333), np.float64(0.15555555555555556)]","[0, 0]","[0, 0]","[1, 1]","[0.000603599997702986, 1.7545748999982607]","[None, 'target']",005,001,2025-09-30_20h40.14.319,Visual Search,,2025.1.1,60.061575120214684,2025-09-30 20h40.23.843514 +0530,
110,0,110,[np.float64(-0.20462962962962963)],[np.float64(0.2074074074074074)],[0],[0],[1],[1.4082087999850046],['target'],110,0,110,0,190.02764200000092,,10,190.01269810000667,190.02764200000092,190.02764200000092,0.056775900011416525,191.42103510000743,[np.float64(-0.20462962962962963)],[np.float64(0.2074074074074074)],[0],[0],[1],[1.4082087999850046],['target'],005,001,2025-09-30_20h40.14.319,Visual Search,,2025.1.1,60.061575120214684,2025-09-30 20h40.23.843514 +0530,
111,0,111,[np.float64(0.012962962962962963)],[np.float64(0.07592592592592592)],[0],[0],[1],[1.1502940000209492],['target'],111,0,111,0,191.45305680000456,,5,191.4435845000262,191.45305680000456,191.45305680000456,0.02193240000633523,192.59433350001927,[np.float64(0.012962962962962963)],[np.float64(0.07592592592592592)],[0],[0],[1],[1.1502940000209492],['target'],005,001,2025-09-30_20h40.14.319,Visual Search,,2025.1.1,60.061575120214684,2025-09-30 20h40.23.843514 +0530,
112,0,112,"[np.float64(0.012962962962962963), np.float64(0.02962962962962963)]","[np.float64(0.07685185185185185), np.float64(0.08333333333333333)]","[0, 0]","[0, 0]","[1, 1]","[0.0013504000089596957, 0.7411085000203457]","[None, 'target']",112,0,112,0,192.6632716000022,,5,192.6489547000092,192.6632716000022,192.6632716000022,0.05387269999482669,193.390430200001,"[np.float64(0.012962962962962963), np.float64(0.02962962962962963)]","[np.float64(0.07685185185185185), np.float64(0.08333333333333333)]","[0, 0]","[0, 0]","[1, 1]","[0.0013504000089596957, 0.7411085000203457]","[None, 'target']",005,001,2025-09-30_20h40.14.319,Visual Search,,2025.1.1,60.061575120214684,2025-09-30 20h40.23.843514 +0530,
113,0,113,"[np.float64(0.02962962962962963), np.float64(-0.4148148148148148)]","[np.float64(0.08333333333333333), np.float64(0.19722222222222222)]","[0, 0]","[0, 0]","[1, 1]","[0.000980400014668703, 1.3851547000231221]","[None, 'target']",113,0,113,0,193.44778680001036,,5,193.43592090002494,193.44778680001036,193.44778680001036,0.04432770001585595,194.8214677000069,"[np.float64(0.02962962962962963), np.float64(-0.4148148148148148)]","[np.float64(0.08333333333333333), np.float64(0.19722222222222222)]","[0, 0]","[0, 0]","[1, 1]","[0.000980400014668703, 1.3851547000231221]","[None, 'target']",005,001,2025-09-30_20h40.14.319,Visual Search,,2025.1.1,60.061575120214684,2025-09-30 20h40.23.843514 +0530,
114,0,114,"[np.float64(-0.4148148148148148), np.float64(-0.19907407407407407), np.float64(-0.18703703703703703)]","[np.float64(0.19537037037037036), np.float64(-0.2037037037037037), np.float64(-0.20277777777777778)]","[0, 0, 0]","[0, 0, 0]","[1, 1, 1]","[0.000587200018344447, 1.1512177000113297, 1.7503015999973286]","[None, None, 'target']",114,0,114,0,194.90586520000943,,10,194.88989430002403,194.90586520000943,194.90586520000943,0.06721619999734685,196.6404863000207,"[np.float64(-0.4148148148148148), np.float64(-0.19907407407407407), np.float64(-0.18703703703703703)]","[np.float64(0.19537037037037036), np.float64(-0.2037037037037037), np.float64(-0.20277777777777778)]","[0, 0, 0]","[0, 0, 0]","[1, 1, 1]","[0.000587200018344447, 1.1512177000113297, 1.7503015999973286]","[None, None, 'target']",005,001,2025-09-30_20h40.14.319,Visual Search,,2025.1.1,60.061575120214684,2025-09-30 20h40.23.843514 +0530,
115,0,115,[np.float64(-0.3212962962962963)],[np.float64(-0.42314814814814816)],[0],[0],[1],[1.7741341999790166],['target'],115,0,115,0,196.71054330002517,,10,196.69568150001578,196.71054330002517,196.71054330002517,0.05423229999723844,198.46988880002755,[np.float64(-0.3212962962962963)],[np.float64(-0.42314814814814816)],[0],[0],[1],[1.7741341999790166],['target'],005,001,2025-09-30_20h40.14.319,Visual Search,,2025.1.1,60.061575120214684,2025-09-30 20h40.23.843514 +0530,
116,0,116,[np.float64(-0.21203703703703702)],[np.float64(-0.3574074074074074)],[0],[0],[1],[1.019363900006283],['target'],116,0,116,0,198.51713840002776,,10,198.50227530000848,198.51713840002776,198.51713840002776,0.032212400023126975,199.5218660000246,[np.float64(-0.21203703703703702)],[np.float64(-0.3574074074074074)],[0],[0],[1],[1.019363900006283],['target'],005,001,2025-09-30_20h40.14.319,Visual Search,,2025.1.1,60.061575120214684,2025-09-30 20h40.23.843514 +0530,
117,0,117,[np.float64(-0.04537037037037037)],[np.float64(-0.1537037037037037)],[0],[0],[1],[1.4145609999832232],['target'],117,0,117,0,199.56606850001845,,5,199.5569563000172,199.56606850001845,199.56606850001845,0.03443410000181757,200.97174780000933,[np.float64(-0.04537037037037037)],[np.float64(-0.1537037037037037)],[0],[0],[1],[1.4145609999832232],['target'],005,001,2025-09-30_20h40.14.319,Visual Search,,2025.1.1,60.061575120214684,2025-09-30 20h40.23.843514 +0530,
118,0,118,"[np.float64(-0.04537037037037037), np.float64(0.4537037037037037)]","[np.float64(-0.1537037037037037), np.float64(-0.09166666666666666)]","[0, 0]","[0, 0]","[1, 1]","[0.0012630000128410757, 1.3680434999987483]","[None, 'target']",118,0,118,0,201.0330321000074,,5,201.01915810001083,201.0330321000074,201.0330321000074,0.0468500999850221,202.3875671000278,"[np.float64(-0.04537037037037037), np.float64(0.4537037037037037)]","[np.float64(-0.1537037037037037), np.float64(-0.09166666666666666)]","[0, 0]","[0, 0]","[1, 1]","[0.0012630000128410757, 1.3680434999987483]","[None, 'target']",005,001,2025-09-30_20h40.14.319,Visual Search,,2025.1.1,60.061575120214684,2025-09-30 20h40.23.843514 +0530,
119,0,119,"[np.float64(0.4537037037037037), np.float64(0.028703703703703703)]","[np.float64(-0.09166666666666666), np.float64(0.000925925925925926)]","[0, 0]","[0, 0]","[1, 1]","[0.0005298999894876033, 1.3483433999936096]","[None, 'target']",119,0,119,0,202.47106980002718,,10,202.4550763000152,202.47106980002718,202.47106980002718,0.06623970001237467,203.80355390001205,"[np.float64(0.4537037037037037), np.float64(0.028703703703703703)]","[np.float64(-0.09166666666666666), np.float64(0.000925925925925926)]","[0, 0]","[0, 0]","[1, 1]","[0.0005298999894876033, 1.3483433999936096]","[None, 'target']",005,001,2025-09-30_20h40.14.319,Visual Search,,2025.1.1,60.061575120214684,2025-09-30 20h40.23.843514 +0530,
120,0,120,"[np.float64(0.028703703703703703), np.float64(-0.44814814814814813)]","[np.float64(0.000925925925925926), np.float64(0.3768518518518518)]","[0, 0]","[0, 0]","[1, 1]","[0.000843599991640076, 1.6840535000083037]","[None, 'target']",120,0,120,0,203.8687973000051,,10,203.852677900024,203.8687973000051,203.8687973000051,0.04870810001739301,205.53695350000635,"[np.float64(0.028703703703703703), np.float64(-0.44814814814814813)]","[np.float64(0.000925925925925926), np.float64(0.3768518518518518)]","[0, 0]","[0, 0]","[1, 1]","[0.000843599991640076, 1.6840535000083037]","[None, 'target']",005,001,2025-09-30_20h40.14.319,Visual Search,,2025.1.1,60.061575120214684,2025-09-30 20h40.23.843514 +0530,
121,0,121,[np.float64(-0.03148148148148148)],[np.float64(-0.14722222222222223)],[0],[0],[1],[1.504061300016474],['target'],121,0,121,0,205.61344110002392,,10,205.59848150002654,205.61344110002392,205.61344110002392,0.060702199989464134,207.1026396000234,[np.float64(-0.03148148148148148)],[np.float64(-0.14722222222222223)],[0],[0],[1],[1.504061300016474],['target'],005,001,2025-09-30_20h40.14.319,Visual Search,,2025.1.1,60.061575120214684,2025-09-30 20h40.23.843514 +0530,
122,0,122,"[np.float64(-0.03148148148148148), np.float64(-0.3768518518518518)]","[np.float64(-0.14722222222222223), np.float64(-0.03981481481481482)]","[0, 0]","[0, 0]","[1, 1]","[0.0006174000154715031, 1.2842561000143178]","[None, 'target']",122,0,122,0,207.1500820000074,,10,207.1344945000019,207.1500820000074,207.1500820000074,0.03164269999251701,208.41891010000836,"[np.float64(-0.03148148148148148), np.float64(-0.3768518518518518)]","[np.float64(-0.14722222222222223), np.float64(-0.03981481481481482)]","[0, 0]","[0, 0]","[1, 1]","[0.0006174000154715031, 1.2842561000143178]","[None, 'target']",005,001,2025-09-30_20h40.14.319,Visual Search,,2025.1.1,60.061575120214684,2025-09-30 20h40.23.843514 +0530,
123,0,123,"[np.float64(-0.3768518518518518), np.float64(-0.27685185185185185)]","[np.float64(-0.03981481481481482), np.float64(-0.1388888888888889)]","[0, 0]","[0, 0]","[1, 1]","[0.0007622000121045858, 1.0779384000052232]","[None, 'target']",123,0,123,0,208.45321050001075,,5,208.44291030001477,208.45321050001075,208.45321050001075,0.023436899995431304,209.52105770001072,"[np.float64(-0.3768518518518518), np.float64(-0.27685185185185185)]","[np.float64(-0.03981481481481482), np.float64(-0.1388888888888889)]","[0, 0]","[0, 0]","[1, 1]","[0.0007622000121045858, 1.0779384000052232]","[None, 'target']",005,001,2025-09-30_20h40.14.319,Visual Search,,2025.1.1,60.061575120214684,2025-09-30 20h40.23.843514 +0530,
124,0,124,"[np.float64(-0.27685185185185185), np.float64(-0.1574074074074074)]","[np.float64(-0.1388888888888889), np.float64(-0.43703703703703706)]","[0, 0]","[0, 0]","[1, 1]","[0.0018564999918453395, 1.5154631999903359]","[None, 'target']",124,0,124,0,209.58668480001506,,5,209.57171129999915,209.58668480001506,209.58668480001506,0.05014800000935793,211.08736700000009,"[np.float64(-0.27685185185185185), np.float64(-0.1574074074074074)]","[np.float64(-0.1388888888888889), np.float64(-0.43703703703703706)]","[0, 0]","[0, 0]","[1, 1]","[0.0018564999918453395, 1.5154631999903359]","[None, 'target']",005,001,2025-09-30_20h40.14.319,Visual Search,,2025.1.1,60.061575120214684,2025-09-30 20h40.23.843514 +0530,
125,0,125,"[np.float64(-0.1574074074074074), np.float64(-0.17685185185185184)]","[np.float64(-0.43796296296296294), np.float64(-0.03518518518518519)]","[0, 0]","[0, 0]","[1, 1]","[0.0006166999810375273, 1.497893899999326]","[None, 'target']",125,0,125,0,211.1699798000045,,10,211.15392540002358,211.1699798000045,211.1699798000045,0.06562000000849366,212.65188490002765,"[np.float64(-0.1574074074074074), np.float64(-0.17685185185185184)]","[np.float64(-0.43796296296296294), np.float64(-0.03518518518518519)]","[0, 0]","[0, 0]","[1, 1]","[0.0006166999810375273, 1.497893899999326]","[None, 'target']",005,001,2025-09-30_20h40.14.319,Visual Search,,2025.1.1,60.061575120214684,2025-09-30 20h40.23.843514 +0530,
126,0,126,"[np.float64(-0.17592592592592593), np.float64(0.13240740740740742)]","[np.float64(-0.03518518518518519), np.float64(0.03333333333333333)]","[0, 0]","[0, 0]","[1, 1]","[0.0010079000203404576, 1.1009467999974731]","[None, 'target']",126,0,126,0,212.70038110000314,,10,212.68461940000998,212.70038110000314,212.70038110000314,0.032556000020122156,213.78563140000915,"[np.float64(-0.17592592592592593), np.float64(0.13240740740740742)]","[np.float64(-0.03518518518518519), np.float64(0.03333333333333333)]","[0, 0]","[0, 0]","[1, 1]","[0.0010079000203404576, 1.1009467999974731]","[None, 'target']",005,001,2025-09-30_20h40.14.319,Visual Search,,2025.1.1,60.061575120214684,2025-09-30 20h40.23.843514 +0530,
127,0,127,"[np.float64(0.13240740740740742), np.float64(-0.31851851851851853)]","[np.float64(0.03425925925925926), np.float64(-0.2324074074074074)]","[0, 0]","[0, 0]","[1, 1]","[0.0007687000033911318, 2.0018717999919318]","[None, 'target']",127,0,127,0,213.83398080000188,,10,213.8186321000103,213.83398080000188,213.83398080000188,0.032795899984193966,215.8209715000121,"[np.float64(0.13240740740740742), np.float64(-0.31851851851851853)]","[np.float64(0.03425925925925926), np.float64(-0.2324074074074074)]","[0, 0]","[0, 0]","[1, 1]","[0.0007687000033911318, 2.0018717999919318]","[None, 'target']",005,001,2025-09-30_20h40.14.319,Visual Search,,2025.1.1,60.061575120214684,2025-09-30 20h40.23.843514 +0530,
128,0,128,[np.float64(0.46296296296296297)],[np.float64(-0.19444444444444445)],[0],[0],[1],[1.6517186999844853],['target'],128,0,128,0,215.88390440001967,,10,215.86951040002168,215.88390440001967,215.88390440001967,0.04724499999429099,217.52134450001176,[np.float64(0.46296296296296297)],[np.float64(-0.19444444444444445)],[0],[0],[1],[1.6517186999844853],['target'],005,001,2025-09-30_20h40.14.319,Visual Search,,2025.1.1,60.061575120214684,2025-09-30 20h40.23.843514 +0530,
129,0,129,[np.float64(0.23981481481481481)],[np.float64(0.17037037037037037)],[0],[0],[1],[1.5708691000181716],['target'],129,0,129,0,217.5807022000081,,10,217.5660011,217.5807022000081,217.5807022000081,0.044301999994786456,219.13714060001075,[np.float64(0.23981481481481481)],[np.float64(0.17037037037037037)],[0],[0],[1],[1.5708691000181716],['target'],005,001,2025-09-30_20h40.14.319,Visual Search,,2025.1.1,60.061575120214684,2025-09-30 20h40.23.843514 +0530,
130,0,130,"[np.float64(0.23981481481481481), np.float64(0.23703703703703705)]","[np.float64(0.1685185185185185), np.float64(-0.24351851851851852)]","[0, 0]","[0, 0]","[1, 1]","[0.0009446000040043145, 1.7777223000011873]","[None, 'target']",130,0,130,0,219.19364800001495,,10,219.17783460000646,219.19364800001495,219.19364800001495,0.03988369999569841,220.95576620000065,"[np.float64(0.23981481481481481), np.float64(0.23703703703703705)]","[np.float64(0.1685185185185185), np.float64(-0.24351851851851852)]","[0, 0]","[0, 0]","[1, 1]","[0.0009446000040043145, 1.7777223000011873]","[None, 'target']",005,001,2025-09-30_20h40.14.319,Visual Search,,2025.1.1,60.061575120214684,2025-09-30 20h40.23.843514 +0530,
131,0,131,"[np.float64(0.23703703703703705), np.float64(0.375)]","[np.float64(-0.24351851851851852), np.float64(0.1814814814814815)]","[0, 0]","[0, 0]","[1, 1]","[0.0007729000062681735, 1.5657855000172276]","[None, 'target']",131,0,131,0,220.99735730001703,,5,220.98681940001552,220.99735730001703,220.99735730001703,0.030314799980260432,222.55284910000046,"[np.float64(0.23703703703703705), np.float64(0.375)]","[np.float64(-0.24351851851851852), np.float64(0.1814814814814815)]","[0, 0]","[0, 0]","[1, 1]","[0.0007729000062681735, 1.5657855000172276]","[None, 'target']",005,001,2025-09-30_20h40.14.319,Visual Search,,2025.1.1,60.061575120214684,2025-09-30 20h40.23.843514 +0530,
132,0,132,[np.float64(-0.4638888888888889)],[np.float64(-0.08333333333333333)],[0],[0],[1],[1.5872568000049796],['target'],132,0,132,0,222.59093290002784,,5,222.58152640002663,222.59093290002784,222.59093290002784,0.02806290000444278,224.16895770002156,[np.float64(-0.4638888888888889)],[np.float64(-0.08333333333333333)],[0],[0],[1],[1.5872568000049796],['target'],005,001,2025-09-30_20h40.14.319,Visual Search,,2025.1.1,60.061575120214684,2025-09-30 20h40.23.843514 +0530,
133,0,133,"[np.float64(-0.4638888888888889), np.float64(0.262037037037037)]","[np.float64(-0.08333333333333333), np.float64(-0.4324074074074074)]","[0, 0]","[0, 0]","[1, 1]","[0.0007377000001724809, 1.943665599974338]","[None, 'target']",133,0,133,0,224.2405529000098,,10,224.22359550002147,224.2405529000098,224.2405529000098,0.054304599994793534,226.16738670002087,"[np.float64(-0.4638888888888889), np.float64(0.262037037037037)]","[np.float64(-0.08333333333333333), np.float64(-0.4324074074074074)]","[0, 0]","[0, 0]","[1, 1]","[0.0007377000001724809, 1.943665599974338]","[None, 'target']",005,001,2025-09-30_20h40.14.319,Visual Search,,2025.1.1,60.061575120214684,2025-09-30 20h40.23.843514 +0530,
134,0,134,[np.float64(-0.03333333333333333)],[np.float64(-0.3074074074074074)],[0],[0],[1],[1.2031641000066884],['target'],134,0,134,0,226.19236760001513,,5,226.18323350002174,226.19236760001513,226.19236760001513,0.015430500003276393,227.38651970002684,[np.float64(-0.03333333333333333)],[np.float64(-0.3074074074074074)],[0],[0],[1],[1.2031641000066884],['target'],005,001,2025-09-30_20h40.14.319,Visual Search,,2025.1.1,60.061575120214684,2025-09-30 20h40.23.843514 +0530,
135,0,135,"[np.float64(-0.03333333333333333), np.float64(0.39166666666666666)]","[np.float64(-0.3074074074074074), np.float64(0.3277777777777778)]","[0, 0]","[0, 0]","[1, 1]","[0.0005650999955832958, 1.715462199994363]","[None, 'target']",135,0,135,0,227.45122919999994,,10,227.43480210000416,227.45122919999994,227.45122919999994,0.04806219998863526,229.1503865000268,"[np.float64(-0.03333333333333333), np.float64(0.39166666666666666)]","[np.float64(-0.3074074074074074), np.float64(0.3277777777777778)]","[0, 0]","[0, 0]","[1, 1]","[0.0005650999955832958, 1.715462199994363]","[None, 'target']",005,001,2025-09-30_20h40.14.319,Visual Search,,2025.1.1,60.061575120214684,2025-09-30 20h40.23.843514 +0530,
136,0,136,"[np.float64(0.39166666666666666), np.float64(-0.33796296296296297)]","[np.float64(0.3277777777777778), np.float64(0.41759259259259257)]","[0, 0]","[0, 0]","[1, 1]","[0.0007086000114213675, 1.9732501000107732]","[None, 'target']",136,0,136,0,229.20959000001312,,10,229.19310550001683,229.20959000001312,229.20959000001312,0.042382000014185905,231.16647630001535,"[np.float64(0.39166666666666666), np.float64(-0.33796296296296297)]","[np.float64(0.3277777777777778), np.float64(0.41759259259259257)]","[0, 0]","[0, 0]","[1, 1]","[0.0007086000114213675, 1.9732501000107732]","[None, 'target']",005,001,2025-09-30_20h40.14.319,Visual Search,,2025.1.1,60.061575120214684,2025-09-30 20h40.23.843514 +0530,
137,0,137,"[np.float64(-0.33796296296296297), np.float64(-0.06574074074074074)]","[np.float64(0.41759259259259257), np.float64(-0.4462962962962963)]","[0, 0]","[0, 0]","[1, 1]","[0.0008707000233698636, 1.3555357000150252]","[None, 'target']",137,0,137,0,231.2267646000255,,10,231.21101040000212,231.2267646000255,231.2267646000255,0.044128900015493855,232.56662340002367,"[np.float64(-0.33796296296296297), np.float64(-0.06574074074074074)]","[np.float64(0.41759259259259257), np.float64(-0.4462962962962963)]","[0, 0]","[0, 0]","[1, 1]","[0.0008707000233698636, 1.3555357000150252]","[None, 'target']",005,001,2025-09-30_20h40.14.319,Visual Search,,2025.1.1,60.061575120214684,2025-09-30 20h40.23.843514 +0530,
138,0,138,"[np.float64(-0.06574074074074074), np.float64(0.36574074074074076)]","[np.float64(-0.4462962962962963), np.float64(-0.03888888888888889)]","[0, 0]","[0, 0]","[0, 1]","[0.001561800017952919, 1.378464300010819]","[None, 'target']",138,0,138,0,232.6200816000055,,10,232.60419990000082,232.6200816000055,232.6200816000055,0.03729810001095757,233.98272110000835,"[np.float64(-0.06574074074074074), np.float64(0.36574074074074076)]","[np.float64(-0.4462962962962963), np.float64(-0.03888888888888889)]","[0, 0]","[0, 0]","[0, 1]","[0.001561800017952919, 1.378464300010819]","[None, 'target']",005,001,2025-09-30_20h40.14.319,Visual Search,,2025.1.1,60.061575120214684,2025-09-30 20h40.23.843514 +0530,
139,0,139,"[np.float64(0.36574074074074076), np.float64(0.022222222222222223)]","[np.float64(-0.03888888888888889), np.float64(0.5)]","[0, 0]","[0, 0]","[1, 1]","[0.0008455000061076134, 1.9040915000077803]","[None, 'target']",139,0,139,0,234.03359520001686,,10,234.01757980001275,234.03359520001686,234.03359520001686,0.034628599998541176,235.92188290000195,"[np.float64(0.36574074074074076), np.float64(0.022222222222222223)]","[np.float64(-0.03888888888888889), np.float64(0.5)]","[0, 0]","[0, 0]","[1, 1]","[0.0008455000061076134, 1.9040915000077803]","[None, 'target']",005,001,2025-09-30_20h40.14.319,Visual Search,,2025.1.1,60.061575120214684,2025-09-30 20h40.23.843514 +0530,
140,0,140,[np.float64(0.42962962962962964)],[np.float64(0.4111111111111111)],[0],[0],[1],[1.727448599995114],['target'],140,0,140,0,235.94855970001663,,5,235.93937750000623,235.94855970001663,235.94855970001663,0.01665490001323633,237.6668945000274,[np.float64(0.42962962962962964)],[np.float64(0.4111111111111111)],[0],[0],[1],[1.727448599995114],['target'],005,001,2025-09-30_20h40.14.319,Visual Search,,2025.1.1,60.061575120214684,2025-09-30 20h40.23.843514 +0530,
141,0,141,[np.float64(0.2824074074074074)],[np.float64(0.275)],[0],[0],[1],[1.4352680000010878],['target'],141,0,141,0,237.7163775000081,,10,237.6970271000173,237.7163775000081,237.7163775000081,0.030013200012035668,239.13235900001018,[np.float64(0.2824074074074074)],[np.float64(0.275)],[0],[0],[1],[1.4352680000010878],['target'],005,001,2025-09-30_20h40.14.319,Visual Search,,2025.1.1,60.061575120214684,2025-09-30 20h40.23.843514 +0530,
142,0,142,"[np.float64(0.2824074074074074), np.float64(-0.21296296296296297)]","[np.float64(0.275), np.float64(-0.1685185185185185)]","[0, 0]","[0, 0]","[1, 1]","[0.0011075999937020242, 1.5019865999929607]","[None, 'target']",142,0,142,0,239.1795369000174,,10,239.16394810000202,239.1795369000174,239.1795369000174,0.03143810000619851,240.66605740002706,"[np.float64(0.2824074074074074), np.float64(-0.21296296296296297)]","[np.float64(0.275), np.float64(-0.1685185185185185)]","[0, 0]","[0, 0]","[1, 1]","[0.0011075999937020242, 1.5019865999929607]","[None, 'target']",005,001,2025-09-30_20h40.14.319,Visual Search,,2025.1.1,60.061575120214684,2025-09-30 20h40.23.843514 +0530,
143,0,143,"[np.float64(-0.21296296296296297), np.float64(0.12129629629629629)]","[np.float64(-0.1685185185185185), np.float64(0.25925925925925924)]","[0, 0]","[0, 0]","[1, 1]","[0.0007792000251356512, 1.2027834000182338]","[None, 'target']",143,0,143,0,240.70562230001087,,5,240.695915600023,240.70562230001087,240.70562230001087,0.029493900015950203,241.89883090002695,"[np.float64(-0.21296296296296297), np.float64(0.12129629629629629)]","[np.float64(-0.1685185185185185), np.float64(0.25925925925925924)]","[0, 0]","[0, 0]","[1, 1]","[0.0007792000251356512, 1.2027834000182338]","[None, 'target']",005,001,2025-09-30_20h40.14.319,Visual Search,,2025.1.1,60.061575120214684,2025-09-30 20h40.23.843514 +0530,
144,0,144,[np.float64(0.06851851851851852)],[np.float64(-0.34444444444444444)],[0],[0],[1],[1.7919247999961954],['target'],144,0,144,0,241.9578662000131,,10,241.9429682000191,241.9578662000131,241.9578662000131,0.043667999998433515,243.73519530001795,[np.float64(0.06851851851851852)],[np.float64(-0.34444444444444444)],[0],[0],[1],[1.7919247999961954],['target'],005,001,2025-09-30_20h40.14.319,Visual Search,,2025.1.1,60.061575120214684,2025-09-30 20h40.23.843514 +0530,
145,0,145,[np.float64(0.2222222222222222)],[np.float64(-0.31296296296296294)],[0],[0],[1],[1.2172504000191111],['target'],145,0,145,0,243.75973930000328,,5,243.75070230002166,243.75973930000328,243.75973930000328,0.014609099976951256,244.96822230002726,[np.float64(0.2222222222222222)],[np.float64(-0.31296296296296294)],[0],[0],[1],[1.2172504000191111],['target'],005,001,2025-09-30_20h40.14.319,Visual Search,,2025.1.1,60.061575120214684,2025-09-30 20h40.23.843514 +0530,
146,0,146,[np.float64(0.35)],[np.float64(-0.3851851851851852)],[0],[0],[1],[1.8151985999720637],['target'],146,0,146,0,245.05110040001455,,10,245.03647980000824,245.05110040001455,245.05110040001455,0.06731839998974465,246.85188700002618,[np.float64(0.35)],[np.float64(-0.3851851851851852)],[0],[0],[1],[1.8151985999720637],['target'],005,001,2025-09-30_20h40.14.319,Visual Search,,2025.1.1,60.061575120214684,2025-09-30 20h40.23.843514 +0530,
147,0,147,"[np.float64(0.35), np.float64(0.04814814814814815)]","[np.float64(-0.3851851851851852), np.float64(0.36944444444444446)]","[0, 0]","[0, 0]","[1, 1]","[0.0009111999825108796, 1.286965399980545]","[None, 'target']",147,0,147,0,246.9275750000088,,10,246.91143450001255,246.9275750000088,246.9275750000088,0.05895310000050813,248.19850990001578,"[np.float64(0.35), np.float64(0.04814814814814815)]","[np.float64(-0.3851851851851852), np.float64(0.36944444444444446)]","[0, 0]","[0, 0]","[1, 1]","[0.0009111999825108796, 1.286965399980545]","[None, 'target']",005,001,2025-09-30_20h40.14.319,Visual Search,,2025.1.1,60.061575120214684,2025-09-30 20h40.23.843514 +0530,
148,0,148,"[np.float64(0.04814814814814815), np.float64(-0.46944444444444444)]","[np.float64(0.36944444444444446), np.float64(-0.44814814814814813)]","[0, 0]","[0, 0]","[1, 1]","[0.0007856999873183668, 1.5692692999728024]","[None, 'target']",148,0,148,0,248.22555420000572,,5,248.2157012000098,248.22555420000572,248.22555420000572,0.016948899981798604,249.7854134000081,"[np.float64(0.04814814814814815), np.float64(-0.46944444444444444)]","[np.float64(0.36944444444444446), np.float64(-0.44814814814814813)]","[0, 0]","[0, 0]","[1, 1]","[0.0007856999873183668, 1.5692692999728024]","[None, 'target']",005,001,2025-09-30_20h40.14.319,Visual Search,,2025.1.1,60.061575120214684,2025-09-30 20h40.23.843514 +0530,
149,0,149,[np.float64(-0.2564814814814815)],[np.float64(-0.46296296296296297)],[0],[0],[1],[1.1734775000077207],['target'],149,0,149,0,249.85778740001842,,10,249.843217000016,249.85778740001842,249.85778740001842,0.05667280001216568,251.01692050002748,[np.float64(-0.2564814814814815)],[np.float64(-0.46296296296296297)],[0],[0],[1],[1.1734775000077207],['target'],005,001,2025-09-30_20h40.14.319,Visual Search,,2025.1.1,60.061575120214684,2025-09-30 20h40.23.843514 +0530,
150,0,150,[np.float64(-0.1787037037037037)],[np.float64(0.14074074074074075)],[0],[0],[1],[1.4859371999918949],['target'],150,0,150,0,251.0961849000014,,10,251.0818315000215,251.0961849000014,251.0961849000014,0.0641767000197433,252.5679661000031,[np.float64(-0.1787037037037037)],[np.float64(0.14074074074074075)],[0],[0],[1],[1.4859371999918949],['target'],005,001,2025-09-30_20h40.14.319,Visual Search,,2025.1.1,60.061575120214684,2025-09-30 20h40.23.843514 +0530,
151,0,151,[np.float64(0.3101851851851852)],[np.float64(-0.018518518518518517)],[0],[0],[1],[1.594585399987409],['target'],151,0,151,0,252.61645070000668,,5,252.60641860001488,252.61645070000668,252.61645070000668,0.03762090002419427,254.20141220002552,[np.float64(0.3101851851851852)],[np.float64(-0.018518518518518517)],[0],[0],[1],[1.594585399987409],['target'],005,001,2025-09-30_20h40.14.319,Visual Search,,2025.1.1,60.061575120214684,2025-09-30 20h40.23.843514 +0530,
152,0,152,"[np.float64(0.3101851851851852), np.float64(-0.3296296296296296)]","[np.float64(-0.018518518518518517), np.float64(-0.34444444444444444)]","[0, 0]","[0, 0]","[1, 1]","[0.0010678000107873231, 1.335115699999733]","[None, 'target']",152,0,152,0,254.25789830001304,,5,254.24672160000773,254.25789830001304,254.25789830001304,0.04436659999191761,255.58222830001614,"[np.float64(0.3101851851851852), np.float64(-0.3296296296296296)]","[np.float64(-0.018518518518518517), np.float64(-0.34444444444444444)]","[0, 0]","[0, 0]","[1, 1]","[0.0010678000107873231, 1.335115699999733]","[None, 'target']",005,001,2025-09-30_20h40.14.319,Visual Search,,2025.1.1,60.061575120214684,2025-09-30 20h40.23.843514 +0530,
153,0,153,"[np.float64(-0.3296296296296296), np.float64(0.2833333333333333)]","[np.float64(-0.34444444444444444), np.float64(-0.36203703703703705)]","[0, 0]","[0, 0]","[1, 1]","[0.0008743999933358282, 1.7415718999982346]","[None, 'target']",153,0,153,0,255.63664520002203,,5,255.6242908000131,255.63664520002203,255.63664520002203,0.04094599999370985,257.3663330000127,"[np.float64(-0.3296296296296296), np.float64(0.2833333333333333)]","[np.float64(-0.34444444444444444), np.float64(-0.36203703703703705)]","[0, 0]","[0, 0]","[1, 1]","[0.0008743999933358282, 1.7415718999982346]","[None, 'target']",005,001,2025-09-30_20h40.14.319,Visual Search,,2025.1.1,60.061575120214684,2025-09-30 20h40.23.843514 +0530,
154,0,154,"[np.float64(0.28425925925925927), np.float64(0.14074074074074075)]","[np.float64(-0.36203703703703705), np.float64(0.5)]","[0, 0]","[0, 0]","[1, 1]","[0.000621499988483265, 1.328475599992089]","[None, 'target']",154,0,154,0,257.4118946000235,,5,257.40179800000624,257.4118946000235,257.4118946000235,0.03410640000947751,258.73034259999986,"[np.float64(0.28425925925925927), np.float64(0.14074074074074075)]","[np.float64(-0.36203703703703705), np.float64(0.5)]","[0, 0]","[0, 0]","[1, 1]","[0.000621499988483265, 1.328475599992089]","[None, 'target']",005,001,2025-09-30_20h40.14.319,Visual Search,,2025.1.1,60.061575120214684,2025-09-30 20h40.23.843514 +0530,
155,0,155,"[np.float64(0.14074074074074075), np.float64(0.2361111111111111), np.float64(0.2111111111111111)]","[np.float64(0.5), np.float64(0.024074074074074074), np.float64(0.02962962962962963)]","[0, 0, 0]","[0, 0, 0]","[1, 1, 1]","[0.0005614999972749501, 1.1191512000223156, 1.750502700015204]","[None, None, 'target']",155,0,155,0,258.7563774000155,,5,258.7462274999998,258.7563774000155,258.7563774000155,0.015635100018698722,260.4969012000074,"[np.float64(0.14074074074074075), np.float64(0.2361111111111111), np.float64(0.2111111111111111)]","[np.float64(0.5), np.float64(0.024074074074074074), np.float64(0.02962962962962963)]","[0, 0, 0]","[0, 0, 0]","[1, 1, 1]","[0.0005614999972749501, 1.1191512000223156, 1.750502700015204]","[None, None, 'target']",005,001,2025-09-30_20h40.14.319,Visual Search,,2025.1.1,60.061575120214684,2025-09-30 20h40.23.843514 +0530,
156,0,156,"[np.float64(0.2111111111111111), np.float64(-0.40370370370370373)]","[np.float64(0.02962962962962963), np.float64(-0.31574074074074077)]","[0, 0]","[0, 0]","[1, 1]","[0.0006670999864581972, 1.6554263999860268]","[None, 'target']",156,0,156,0,260.5356735000096,,5,260.52641869999934,260.5356735000096,260.5356735000096,0.028937700000824407,262.18215150001924,"[np.float64(0.2111111111111111), np.float64(-0.40370370370370373)]","[np.float64(0.02962962962962963), np.float64(-0.31574074074074077)]","[0, 0]","[0, 0]","[1, 1]","[0.0006670999864581972, 1.6554263999860268]","[None, 'target']",005,001,2025-09-30_20h40.14.319,Visual Search,,2025.1.1,60.061575120214684,2025-09-30 20h40.23.843514 +0530,
157,0,157,"[np.float64(-0.40370370370370373), np.float64(-0.04351851851851852)]","[np.float64(-0.31574074074074077), np.float64(0.3907407407407407)]","[0, 0]","[0, 0]","[1, 1]","[0.0006017000123392791, 1.888875700009521]","[None, 'target']",157,0,157,0,262.24000010002055,,10,262.2251436000224,262.24000010002055,262.24000010002055,0.04216959999757819,264.1140900000173,"[np.float64(-0.40370370370370373), np.float64(-0.04351851851851852)]","[np.float64(-0.31574074074074077), np.float64(0.3907407407407407)]","[0, 0]","[0, 0]","[1, 1]","[0.0006017000123392791, 1.888875700009521]","[None, 'target']",005,001,2025-09-30_20h40.14.319,Visual Search,,2025.1.1,60.061575120214684,2025-09-30 20h40.23.843514 +0530,
158,0,158,"[np.float64(-0.04351851851851852), np.float64(-0.5)]","[np.float64(0.3907407407407407), np.float64(0.030555555555555555)]","[0, 0]","[0, 0]","[1, 1]","[0.0007100999937392771, 1.1312654000066686]","[None, 'target']",158,0,158,0,264.1427269000269,,5,264.1329657000024,264.1427269000269,264.1427269000269,0.0186194000125397,265.2646527000179,"[np.float64(-0.04351851851851852), np.float64(-0.5)]","[np.float64(0.3907407407407407), np.float64(0.030555555555555555)]","[0, 0]","[0, 0]","[1, 1]","[0.0007100999937392771, 1.1312654000066686]","[None, 'target']",005,001,2025-09-30_20h40.14.319,Visual Search,,2025.1.1,60.061575120214684,2025-09-30 20h40.23.843514 +0530,
159,0,159,"[np.float64(-0.2101851851851852), np.float64(-0.18333333333333332)]","[np.float64(0.20185185185185187), np.float64(0.20185185185185187)]","[0, 0]","[0, 0]","[1, 1]","[1.1021477000031155, 1.567918799992185]","[None, 'target']",159,0,159,0,265.4106898000173,,10,265.3954536000092,265.4106898000173,265.4106898000173,0.1295770000142511,266.96344730001874,"[np.float64(-0.2101851851851852), np.float64(-0.18333333333333332)]","[np.float64(0.20185185185185187), np.float64(0.20185185185185187)]","[0, 0]","[0, 0]","[1, 1]","[1.1021477000031155, 1.567918799992185]","[None, 'target']",005,001,2025-09-30_20h40.14.319,Visual Search,,2025.1.1,60.061575120214684,2025-09-30 20h40.23.843514 +0530,
160,0,160,[np.float64(0.21666666666666667)],[np.float64(-0.3212962962962963)],[0],[0],[1],[1.7184777999937069],['target'],160,0,160,0,267.0294736000069,,10,267.01115100001334,267.0294736000069,267.0294736000069,0.04748860001564026,268.72968519999995,[np.float64(0.21666666666666667)],[np.float64(-0.3212962962962963)],[0],[0],[1],[1.7184777999937069],['target'],005,001,2025-09-30_20h40.14.319,Visual Search,,2025.1.1,60.061575120214684,2025-09-30 20h40.23.843514 +0530,
