pos,corr_resp,thisN,thisTrialN,thisRepN,key_resp.keys,key_resp.corr,key_resp.rt,key_resp.duration,key_resp_2.keys,key_resp_2.corr,key_resp_2.rt,key_resp_2.duration,seq.thisRepN,seq.thisTrialN,seq.thisN,seq.thisIndex,ran.thisRepN,ran.thisTrialN,ran.thisN,ran.thisIndex,thisRow.t,notes,trial.started,fixation.started,line1.started,line2.started,line3.started,line4.started,fixation.stopped,probe.started,key_resp.started,trial.stopped,seq.key_resp.keys,seq.key_resp.corr,seq.key_resp.rt,seq.key_resp.duration,trial2.started,fixation2.started,lineA.started,lineB.started,lineC.started,lineD.started,fixation2.stopped,probe2.started,key_resp_2.started,trial2.stopped,ran.key_resp_2.keys,ran.key_resp_2.corr,ran.key_resp_2.rt,ran.key_resp_2.duration,participant,session,date,expName,expVersion,psychopyVersion,frameRate,expStart,
-50,x,0,0,0,x,1,1.5727271999930963,None,,,,,0,0,0,0,,,,,0.0268435999751091,,0.022804199950769544,0.0268435999751091,1.0104358999524266,1.0104358999524266,1.0104358999524266,1.0104358999524266,1.0271300000022165,2.010558499954641,2.010558499954641,3.69771519995993,x,1,1.5727271999930963,None,,,,,,,,,,,,,,,02,001,2025-10-03_14h53.18.482,motorselection,,2025.1.1,60.01720092102189,2025-10-03 14h53.46.410391 +0530,
150,v,1,1,0,v,1,0.5740274999989197,None,,,,,0,1,1,1,,,,,3.701237899949774,,3.6980376999708824,3.701237899949774,4.710476799984463,4.710476799984463,4.710476799984463,4.710476799984463,4.710476799984463,5.710528499970678,5.710528499970678,6.295050199958496,v,1,0.5740274999989197,None,,,,,,,,,,,,,,,02,001,2025-10-03_14h53.18.482,motorselection,,2025.1.1,60.01720092102189,2025-10-03 14h53.46.410391 +0530,
50,c,2,2,0,c,1,0.32927360001485795,None,,,,,0,2,2,2,,,,,6.310319099982735,,6.296237399976235,6.310319099982735,7.310290099994745,7.310290099994745,7.310290099994745,7.310290099994745,7.310290099994745,8.310295999981463,8.310295999981463,8.64476219995413,c,1,0.32927360001485795,None,,,,,,,,,,,,,,,02,001,2025-10-03_14h53.18.482,motorselection,,2025.1.1,60.01720092102189,2025-10-03 14h53.46.410391 +0530,
-150,z,3,3,0,z,1,0.35289280000142753,None,,,,,0,3,3,3,,,,,8.660155299992766,,8.645806399988942,8.660155299992766,9.66017709998414,9.66017709998414,9.66017709998414,9.66017709998414,9.66017709998414,10.660034300002735,10.660034300002735,11.027271199971437,z,1,0.35289280000142753,None,,,,,,,,,,,,,,,02,001,2025-10-03_14h53.18.482,motorselection,,2025.1.1,60.01720092102189,2025-10-03 14h53.46.410391 +0530,
-50,x,4,0,1,x,1,0.8548798999981955,None,,,,,1,0,4,0,,,,,11.042862299946137,,11.028045199986082,11.042862299946137,12.026634699956048,12.026634699956048,12.026634699956048,12.026634699956048,12.043351599946618,13.043036699993536,13.043036699993536,13.909885599976406,x,1,0.8548798999981955,None,,,,,,,,,,,,,,,02,001,2025-10-03_14h53.18.482,motorselection,,2025.1.1,60.01720092102189,2025-10-03 14h53.46.410391 +0530,
150,v,5,1,1,v,1,1.223811800009571,None,,,,,1,1,5,1,,,,,13.925846099969931,,13.91047719999915,13.925846099969931,14.909649899986107,14.909649899986107,14.909649899986107,14.909649899986107,14.92635889997473,15.909024799999315,15.909024799999315,17.142554299964104,v,1,1.223811800009571,None,,,,,,,,,,,,,,,02,001,2025-10-03_14h53.18.482,motorselection,,2025.1.1,60.01720092102189,2025-10-03 14h53.46.410391 +0530,
50,c,6,2,1,c,1,1.1311569000245072,None,,,,,1,2,6,2,,,,,17.158492699963972,,17.143047199991997,17.158492699963972,18.142546399962157,18.142546399962157,18.142546399962157,18.142546399962157,18.159232699952554,19.14247500000056,19.14247500000056,20.27652329998091,c,1,1.1311569000245072,None,,,,,,,,,,,,,,,02,001,2025-10-03_14h53.18.482,motorselection,,2025.1.1,60.01720092102189,2025-10-03 14h53.46.410391 +0530,
-150,z,7,3,1,z,1,0.7941227999981493,None,,,,,1,3,7,3,,,,,20.291993199964054,,20.2774166999734,20.291993199964054,21.292349999945145,21.292349999945145,21.292349999945145,21.292349999945145,21.292349999945145,22.29220579995308,22.29220579995308,23.092545499966945,z,1,0.7941227999981493,None,,,,,,,,,,,,,,,02,001,2025-10-03_14h53.18.482,motorselection,,2025.1.1,60.01720092102189,2025-10-03 14h53.46.410391 +0530,
-50,x,8,0,2,x,1,0.8877441000076942,None,,,,,2,0,8,0,,,,,23.108220599999186,,23.093254199950024,23.108220599999186,24.092090199992526,24.092090199992526,24.092090199992526,24.092090199992526,24.10871059994679,25.10810789995594,25.10810789995594,26.008504499972332,x,1,0.8877441000076942,None,,,,,,,,,,,,,,,02,001,2025-10-03_14h53.18.482,motorselection,,2025.1.1,60.01720092102189,2025-10-03 14h53.46.410391 +0530,
150,v,9,1,2,v,1,0.7549998000031337,None,,,,,2,1,9,1,,,,,26.02439349994529,,26.009296699950937,26.02439349994529,27.008403999963775,27.008403999963775,27.008403999963775,27.008403999963775,27.02501309994841,28.007924399978947,28.007924399978947,28.775337199971545,v,1,0.7549998000031337,None,,,,,,,,,,,,,,,02,001,2025-10-03_14h53.18.482,motorselection,,2025.1.1,60.01720092102189,2025-10-03 14h53.46.410391 +0530,
50,c,10,2,2,v,0,0.8343550999998115,None,,,,,2,2,10,2,,,,,28.79123879998224,,28.776232299976982,28.79123879998224,29.774658999987878,29.774658999987878,29.774658999987878,29.774658999987878,29.79144829994766,30.774574199982453,30.774574199982453,31.625948200002313,v,0,0.8343550999998115,None,,,,,,,,,,,,,,,02,001,2025-10-03_14h53.18.482,motorselection,,2025.1.1,60.01720092102189,2025-10-03 14h53.46.410391 +0530,
-150,z,11,3,2,z,1,2.4429359000059776,None,,,,,2,3,11,3,,,,,31.641240699973423,,31.6271926999907,31.641240699973423,32.641124499961734,32.641124499961734,32.641124499961734,32.641124499961734,32.641124499961734,33.64107779995538,33.64107779995538,36.091539999993984,z,1,2.4429359000059776,None,,,,,,,,,,,,,,,02,001,2025-10-03_14h53.18.482,motorselection,,2025.1.1,60.01720092102189,2025-10-03 14h53.46.410391 +0530,
-50,x,12,0,3,x,1,1.128976700012572,None,,,,,3,0,12,0,,,,,36.107360299967695,,36.092597499955446,36.107360299967695,37.10738369997125,37.10738369997125,37.10738369997125,37.10738369997125,37.10738369997125,38.10691129998304,38.10691129998304,39.24127609998686,x,1,1.128976700012572,None,,,,,,,,,,,,,,,02,001,2025-10-03_14h53.18.482,motorselection,,2025.1.1,60.01720092102189,2025-10-03 14h53.46.410391 +0530,
150,v,13,1,3,v,1,0.9873156000394374,None,,,,,3,1,13,1,,,,,39.25682939996477,,39.242252599971835,39.25682939996477,40.257132500002626,40.257132500002626,40.257132500002626,40.257132500002626,40.257132500002626,41.25650349998614,41.25650349998614,42.258002699993085,v,1,0.9873156000394374,None,,,,,,,,,,,,,,,02,001,2025-10-03_14h53.18.482,motorselection,,2025.1.1,60.01720092102189,2025-10-03 14h53.46.410391 +0530,
50,c,14,2,3,c,1,0.9517965000122786,None,,,,,3,2,14,2,,,,,42.27340209996328,,42.25903329998255,42.27340209996328,43.27349069999764,43.27349069999764,43.27349069999764,43.27349069999764,43.27349069999764,44.27335579995997,44.27335579995997,45.24100139999064,c,1,0.9517965000122786,None,,,,,,,,,,,,,,,02,001,2025-10-03_14h53.18.482,motorselection,,2025.1.1,60.01720092102189,2025-10-03 14h53.46.410391 +0530,
-150,z,15,3,3,z,1,0.871135699970182,None,,,,,3,3,15,3,,,,,45.25617569999304,,45.241876199957915,45.25617569999304,46.25593449996086,46.25593449996086,46.25593449996086,46.25593449996086,46.25593449996086,47.25597749999724,47.25597749999724,48.140208399971016,z,1,0.871135699970182,None,,,,,,,,,,,,,,,02,001,2025-10-03_14h53.18.482,motorselection,,2025.1.1,60.01720092102189,2025-10-03 14h53.46.410391 +0530,
-50,x,16,0,4,x,1,0.8743882999988273,None,,,,,4,0,16,0,,,,,48.15582469996298,,48.14098839997314,48.15582469996298,49.139519799966365,49.139519799966365,49.139519799966365,49.139519799966365,49.155882099992596,50.15608989994507,50.15608989994507,51.03961029998027,x,1,0.8743882999988273,None,,,,,,,,,,,,,,,02,001,2025-10-03_14h53.18.482,motorselection,,2025.1.1,60.01720092102189,2025-10-03 14h53.46.410391 +0530,
150,v,17,1,4,v,1,1.014460600039456,None,,,,,4,1,17,1,,,,,51.055498499947134,,51.04036299994914,51.055498499947134,52.03922369994689,52.03922369994689,52.03922369994689,52.03922369994689,52.05591469997307,53.05535019998206,53.05535019998206,54.072489899990615,v,1,1.014460600039456,None,,,,,,,,,,,,,,,02,001,2025-10-03_14h53.18.482,motorselection,,2025.1.1,60.01720092102189,2025-10-03 14h53.46.410391 +0530,
50,c,18,2,4,c,1,0.9089727999526076,None,,,,,4,2,18,2,,,,,54.08852629998,,54.07322819996625,54.08852629998,55.07183839997742,55.07183839997742,55.07183839997742,55.07183839997742,55.0884227999486,56.08846709999489,56.08846709999489,57.006874199956656,c,1,0.9089727999526076,None,,,,,,,,,,,,,,,02,001,2025-10-03_14h53.18.482,motorselection,,2025.1.1,60.01720092102189,2025-10-03 14h53.46.410391 +0530,
-150,z,19,3,4,z,1,0.801949099986814,None,,,,,4,3,19,3,,,,,57.022008100000676,,57.00831459998153,57.022008100000676,58.02198719995795,58.02198719995795,58.02198719995795,58.02198719995795,58.02198719995795,59.0215029999963,59.0215029999963,59.839677699957974,z,1,0.801949099986814,None,,,,,,,,,,,,,,,02,001,2025-10-03_14h53.18.482,motorselection,,2025.1.1,60.01720092102189,2025-10-03 14h53.46.410391 +0530,
-50,x,20,0,5,x,1,0.7479590000002645,None,,,,,5,0,20,0,,,,,59.856384699989576,,59.840801499958616,59.856384699989576,60.85501099994872,60.85501099994872,60.85501099994872,60.85501099994872,60.87172879994614,61.85490189999109,61.85490189999109,62.605709499970544,x,1,0.7479590000002645,None,,,,,,,,,,,,,,,02,001,2025-10-03_14h53.18.482,motorselection,,2025.1.1,60.01720092102189,2025-10-03 14h53.46.410391 +0530,
150,v,21,1,5,v,1,0.9101352000143379,None,,,,,5,1,21,1,,,,,62.62118409998948,,62.606621799990535,62.62118409998948,63.62134959996911,63.62134959996911,63.62134959996911,63.62134959996911,63.62134959996911,64.6207330999896,64.6207330999896,65.53808799997205,v,1,0.9101352000143379,None,,,,,,,,,,,,,,,02,001,2025-10-03_14h53.18.482,motorselection,,2025.1.1,60.01720092102189,2025-10-03 14h53.46.410391 +0530,
50,c,22,2,5,c,1,1.3453887999639846,None,,,,,5,2,22,2,,,,,65.55391679995228,,65.53875869995682,65.55391679995228,66.5378800999606,66.5378800999606,66.5378800999606,66.5378800999606,66.55432909994852,67.5376932999934,67.5376932999934,68.88855239999248,c,1,1.3453887999639846,None,,,,,,,,,,,,,,,02,001,2025-10-03_14h53.18.482,motorselection,,2025.1.1,60.01720092102189,2025-10-03 14h53.46.410391 +0530,
-150,z,23,3,5,z,1,0.7213823999627493,None,,,,,5,3,23,3,,,,,68.90355809999164,,68.88939079997363,68.90355809999164,69.90391609998187,69.90391609998187,69.90391609998187,69.90391609998187,69.90391609998187,70.90362719999393,70.90362719999393,71.63751400000183,z,1,0.7213823999627493,None,,,,,,,,,,,,,,,02,001,2025-10-03_14h53.18.482,motorselection,,2025.1.1,60.01720092102189,2025-10-03 14h53.46.410391 +0530,
-50,x,24,0,6,x,1,0.8148270000237972,None,,,,,6,0,24,0,,,,,71.65358829998877,,71.63780329999281,71.65358829998877,72.65286819997709,72.65286819997709,72.65286819997709,72.65286819997709,72.65286819997709,73.65276639995864,73.65276639995864,74.46993169997586,x,1,0.8148270000237972,None,,,,,,,,,,,,,,,02,001,2025-10-03_14h53.18.482,motorselection,,2025.1.1,60.01720092102189,2025-10-03 14h53.46.410391 +0530,
150,v,25,1,6,v,1,1.376422100001946,None,,,,,6,1,25,1,,,,,74.4860297999694,,74.4704148999881,74.4860297999694,75.46927819994744,75.46927819994744,75.46927819994744,75.46927819994744,75.48590749996947,76.47005589999026,76.47005589999026,77.8539939999464,v,1,1.376422100001946,None,,,,,,,,,,,,,,,02,001,2025-10-03_14h53.18.482,motorselection,,2025.1.1,60.01720092102189,2025-10-03 14h53.46.410391 +0530,
50,c,26,2,6,c,1,0.8391597000299953,None,,,,,6,2,26,2,,,,,77.86999869998544,,77.85491139994701,77.86999869998544,78.869957399962,78.869957399962,78.869957399962,78.869957399962,78.869957399962,79.86942099995213,79.86942099995213,80.72031609999249,c,1,0.8391597000299953,None,,,,,,,,,,,,,,,02,001,2025-10-03_14h53.18.482,motorselection,,2025.1.1,60.01720092102189,2025-10-03 14h53.46.410391 +0530,
-150,z,27,3,6,z,1,0.8371566000278108,None,,,,,6,3,27,3,,,,,80.73599580000155,,80.72109710000223,80.73599580000155,81.71965240000281,81.71965240000281,81.71965240000281,81.71965240000281,81.73625959997298,82.71953249996295,82.71953249996295,83.56943399994634,z,1,0.8371566000278108,None,,,,,,,,,,,,,,,02,001,2025-10-03_14h53.18.482,motorselection,,2025.1.1,60.01720092102189,2025-10-03 14h53.46.410391 +0530,
-50,x,28,0,7,x,1,0.8574770999839529,None,,,,,7,0,28,0,,,,,83.58548589999555,,83.5699274999788,83.58548589999555,84.56896419997793,84.56896419997793,84.56896419997793,84.56896419997793,84.58548009995138,85.56905809999444,85.56905809999444,86.437120699964,x,1,0.8574770999839529,None,,,,,,,,,,,,,,,02,001,2025-10-03_14h53.18.482,motorselection,,2025.1.1,60.01720092102189,2025-10-03 14h53.46.410391 +0530,
150,v,29,1,7,v,1,0.8244733999599703,None,,,,,7,1,29,1,,,,,86.45237769995583,,86.43830429995432,86.45237769995583,87.45226749998983,87.45226749998983,87.45226749998983,87.45226749998983,87.45226749998983,88.4521037999657,88.4521037999657,89.28527929994743,v,1,0.8244733999599703,None,,,,,,,,,,,,,,,02,001,2025-10-03_14h53.18.482,motorselection,,2025.1.1,60.01720092102189,2025-10-03 14h53.46.410391 +0530,
50,c,30,2,7,c,1,0.7556132000172511,None,,,,,7,2,30,2,,,,,89.301767500001,,89.28567829995882,89.301767500001,90.28540169994812,90.28540169994812,90.28540169994812,90.28540169994812,90.30200659995899,91.28526360000251,91.28526360000251,92.0532680999604,c,1,0.7556132000172511,None,,,,,,,,,,,,,,,02,001,2025-10-03_14h53.18.482,motorselection,,2025.1.1,60.01720092102189,2025-10-03 14h53.46.410391 +0530,
-150,z,31,3,7,z,1,0.7580335999955423,None,,,,,7,3,31,3,,,,,92.068433599954,,92.05443489999743,92.068433599954,93.068358599965,93.068358599965,93.068358599965,93.068358599965,93.068358599965,94.06830949999858,94.06830949999858,94.83637779997662,z,1,0.7580335999955423,None,,,,,,,,,,,,,,,02,001,2025-10-03_14h53.18.482,motorselection,,2025.1.1,60.01720092102189,2025-10-03 14h53.46.410391 +0530,
-50,x,32,0,8,x,1,0.6047891000052914,None,,,,,8,0,32,0,,,,,94.85154459998012,,94.83769089996349,94.85154459998012,95.85143339994829,95.85143339994829,95.85143339994829,95.85143339994829,95.85143339994829,96.85094360000221,96.85094360000221,97.46852399996715,x,1,0.6047891000052914,None,,,,,,,,,,,,,,,02,001,2025-10-03_14h53.18.482,motorselection,,2025.1.1,60.01720092102189,2025-10-03 14h53.46.410391 +0530,
150,v,33,1,8,v,1,0.8636690999846905,None,,,,,8,1,33,1,,,,,97.48405499994988,,97.46932569995988,97.48405499994988,98.46789649996208,98.46789649996208,98.46789649996208,98.46789649996208,98.4845327999792,99.48382809996838,99.48382809996838,100.35130879998906,v,1,0.8636690999846905,None,,,,,,,,,,,,,,,02,001,2025-10-03_14h53.18.482,motorselection,,2025.1.1,60.01720092102189,2025-10-03 14h53.46.410391 +0530,
50,c,34,2,8,c,1,1.3649628999992274,None,,,,,8,2,34,2,,,,,100.36725719994865,,100.35201039997628,100.36725719994865,101.35088589997031,101.35088589997031,101.35088589997031,101.35088589997031,101.36760499997763,102.35077799996361,102.35077799996361,103.71870589995524,c,1,1.3649628999992274,None,,,,,,,,,,,,,,,02,001,2025-10-03_14h53.18.482,motorselection,,2025.1.1,60.01720092102189,2025-10-03 14h53.46.410391 +0530,
-150,z,35,3,8,z,1,0.6936434000381269,None,,,,,8,3,35,3,,,,,103.73395219998201,,103.71974979998777,103.73395219998201,104.73388479999267,104.73388479999267,104.73388479999267,104.73388479999267,104.73388479999267,105.73378469998715,105.73378469998715,106.4361144999857,z,1,0.6936434000381269,None,,,,,,,,,,,,,,,02,001,2025-10-03_14h53.18.482,motorselection,,2025.1.1,60.01720092102189,2025-10-03 14h53.46.410391 +0530,
-50,x,36,0,9,x,1,0.6921868000063114,None,,,,,9,0,36,0,,,,,106.45038669998758,,106.43749899999239,106.45038669998758,107.45040039997548,107.45040039997548,107.45040039997548,107.45040039997548,107.45040039997548,108.45012509997468,108.45012509997468,109.15142329997616,x,1,0.6921868000063114,None,,,,,,,,,,,,,,,02,001,2025-10-03_14h53.18.482,motorselection,,2025.1.1,60.01720092102189,2025-10-03 14h53.46.410391 +0530,
150,v,37,1,9,v,1,0.9570704000070691,None,,,,,9,1,37,1,,,,,109.16665119997924,,109.15258829999948,109.16665119997924,110.16652809997322,110.16652809997322,110.16652809997322,110.16652809997322,110.16652809997322,111.16627739998512,111.16627739998512,112.13378370000282,v,1,0.9570704000070691,None,,,,,,,,,,,,,,,02,001,2025-10-03_14h53.18.482,motorselection,,2025.1.1,60.01720092102189,2025-10-03 14h53.46.410391 +0530,
50,c,38,2,9,c,1,0.7663502999930643,None,,,,,9,2,38,2,,,,,112.14944069995545,,112.13459779997356,112.14944069995545,113.13296129996888,113.13296129996888,113.13296129996888,113.13296129996888,113.14977049996378,114.14889149996452,114.14889149996452,114.91681949998019,c,1,0.7663502999930643,None,,,,,,,,,,,,,,,02,001,2025-10-03_14h53.18.482,motorselection,,2025.1.1,60.01720092102189,2025-10-03 14h53.46.410391 +0530,
-150,z,39,3,9,z,1,0.6965220999554731,None,,,,,9,3,39,3,,,,,114.93252499995288,,114.9176416999544,114.93252499995288,115.93229319999227,115.93229319999227,115.93229319999227,115.93229319999227,115.93229319999227,116.93226309999591,116.93226309999591,117.63438359997235,z,1,0.6965220999554731,None,,,,,,,,,,,,,,,02,001,2025-10-03_14h53.18.482,motorselection,,2025.1.1,60.01720092102189,2025-10-03 14h53.46.410391 +0530,
-50,x,40,0,10,x,1,0.6909592999727465,None,,,,,10,0,40,0,,,,,117.64931859995704,,117.63576399994781,117.64931859995704,118.64923579996685,118.64923579996685,118.64923579996685,118.64923579996685,118.64923579996685,119.64903709996725,119.64903709996725,120.3505580999772,x,1,0.6909592999727465,None,,,,,,,,,,,,,,,02,001,2025-10-03_14h53.18.482,motorselection,,2025.1.1,60.01720092102189,2025-10-03 14h53.46.410391 +0530,
150,v,41,1,10,v,1,0.7402464000042528,None,,,,,10,1,41,1,,,,,120.36558059998788,,120.35210739995819,120.36558059998788,121.36560629995074,121.36560629995074,121.36560629995074,121.36560629995074,121.36560629995074,122.36544359999243,122.36544359999243,123.11612479999894,v,1,0.7402464000042528,None,,,,,,,,,,,,,,,02,001,2025-10-03_14h53.18.482,motorselection,,2025.1.1,60.01720092102189,2025-10-03 14h53.46.410391 +0530,
50,c,42,2,10,c,1,0.7719501000246964,None,,,,,10,2,42,2,,,,,123.13171589997364,,123.11701269994956,123.13171589997364,124.11530199996196,124.11530199996196,124.11530199996196,124.11530199996196,124.13192769995658,125.13190389994998,125.13190389994998,125.91742169996724,c,1,0.7719501000246964,None,,,,,,,,,,,,,,,02,001,2025-10-03_14h53.18.482,motorselection,,2025.1.1,60.01720092102189,2025-10-03 14h53.46.410391 +0530,
-150,z,43,3,10,z,1,0.535016700043343,None,,,,,10,3,43,3,,,,,125.9316501999856,,125.91947859997163,125.9316501999856,126.93164149997756,126.93164149997756,126.93164149997756,126.93164149997756,126.93164149997756,127.93145679996815,127.93145679996815,128.4816029999638,z,1,0.535016700043343,None,,,,,,,,,,,,,,,02,001,2025-10-03_14h53.18.482,motorselection,,2025.1.1,60.01720092102189,2025-10-03 14h53.46.410391 +0530,
-50,x,44,0,11,x,1,0.8352141000214033,None,,,,,11,0,44,0,,,,,128.4976235999493,,128.482119399996,128.4976235999493,129.48147409997182,129.48147409997182,129.48147409997182,129.48147409997182,129.49803969997447,130.48104899999453,130.48104899999453,131.33201509999344,x,1,0.8352141000214033,None,,,,,,,,,,,,,,,02,001,2025-10-03_14h53.18.482,motorselection,,2025.1.1,60.01720092102189,2025-10-03 14h53.46.410391 +0530,
150,v,45,1,11,v,1,0.7231156000052579,None,,,,,11,1,45,1,,,,,131.34754769998835,,131.33291419997113,131.34754769998835,132.34784349997062,132.34784349997062,132.34784349997062,132.34784349997062,132.34784349997062,133.34733769996092,133.34733769996092,134.08161049999762,v,1,0.7231156000052579,None,,,,,,,,,,,,,,,02,001,2025-10-03_14h53.18.482,motorselection,,2025.1.1,60.01720092102189,2025-10-03 14h53.46.410391 +0530,
50,c,46,2,11,c,1,0.8226117999874987,None,,,,,11,2,46,2,,,,,134.09726309997495,,134.08240059996024,134.09726309997495,135.08087039995007,135.08087039995007,135.08087039995007,135.08087039995007,135.09742619999452,136.0971004999592,136.0971004999592,136.93147799995495,c,1,0.8226117999874987,None,,,,,,,,,,,,,,,02,001,2025-10-03_14h53.18.482,motorselection,,2025.1.1,60.01720092102189,2025-10-03 14h53.46.410391 +0530,
-150,z,47,3,11,z,1,0.7040429000044242,None,,,,,11,3,47,3,,,,,136.9469980999711,,136.93236340000294,136.9469980999711,137.9471913999878,137.9471913999878,137.9471913999878,137.9471913999878,137.9471913999878,138.94715659995563,138.94715659995563,139.66436449997127,z,1,0.7040429000044242,None,,,,,,,,,,,,,,,02,001,2025-10-03_14h53.18.482,motorselection,,2025.1.1,60.01720092102189,2025-10-03 14h53.46.410391 +0530,
-50,x,48,0,12,x,1,0.7149046999984421,None,,,,,12,0,48,0,,,,,139.68004279996967,,139.6653040999663,139.68004279996967,140.66355219995603,140.66355219995603,140.66355219995603,140.66355219995603,140.68034500000067,141.66340289998334,141.66340289998334,142.38158389995806,x,1,0.7149046999984421,None,,,,,,,,,,,,,,,02,001,2025-10-03_14h53.18.482,motorselection,,2025.1.1,60.01720092102189,2025-10-03 14h53.46.410391 +0530,
150,v,49,1,12,v,1,0.7448792000068352,None,,,,,12,1,49,1,,,,,142.3968100999482,,142.38290649995906,142.3968100999482,143.39674999995623,143.39674999995623,143.39674999995623,143.39674999995623,143.39674999995623,144.39661429997068,144.39661429997068,145.1461422999855,v,1,0.7448792000068352,None,,,,,,,,,,,,,,,02,001,2025-10-03_14h53.18.482,motorselection,,2025.1.1,60.01720092102189,2025-10-03 14h53.46.410391 +0530,
50,c,50,2,12,c,1,0.9450716999708675,None,,,,,12,2,50,2,,,,,145.16230609995546,,145.14644419995602,145.16230609995546,146.14566749997903,146.14566749997903,146.14566749997903,146.14566749997903,146.16218589997152,147.14541949995328,147.14541949995328,148.09574689995497,c,1,0.9450716999708675,None,,,,,,,,,,,,,,,02,001,2025-10-03_14h53.18.482,motorselection,,2025.1.1,60.01720092102189,2025-10-03 14h53.46.410391 +0530,
-150,z,51,3,12,z,1,1.218386400025338,None,,,,,12,3,51,3,,,,,148.11195779999252,,148.09613279998302,148.11195779999252,149.0952748999698,149.0952748999698,149.0952748999698,149.0952748999698,149.112580099958,150.09556099999463,150.09556099999463,151.33065799996257,z,1,1.218386400025338,None,,,,,,,,,,,,,,,02,001,2025-10-03_14h53.18.482,motorselection,,2025.1.1,60.01720092102189,2025-10-03 14h53.46.410391 +0530,
-50,x,52,0,13,x,1,0.7662045999895781,None,,,,,13,0,52,0,,,,,151.34591979999095,,151.3319804999628,151.34591979999095,152.3458593999967,152.3458593999967,152.3458593999967,152.3458593999967,152.3458593999967,153.34530759998597,153.34530759998597,154.11270009999862,x,1,0.7662045999895781,None,,,,,,,,,,,,,,,02,001,2025-10-03_14h53.18.482,motorselection,,2025.1.1,60.01720092102189,2025-10-03 14h53.46.410391 +0530,
150,v,53,1,13,v,1,0.844538500008639,None,,,,,13,1,53,1,,,,,154.12841109995497,,154.11334299994633,154.12841109995497,155.1122744999593,155.1122744999593,155.1122744999593,155.1122744999593,155.12890899996273,156.128101099981,156.128101099981,156.97920369997155,v,1,0.844538500008639,None,,,,,,,,,,,,,,,02,001,2025-10-03_14h53.18.482,motorselection,,2025.1.1,60.01720092102189,2025-10-03 14h53.46.410391 +0530,
50,c,54,2,13,c,1,0.8693748000077903,None,,,,,13,2,54,2,,,,,156.99493649997748,,156.97989939997206,156.99493649997748,157.99430249998113,157.99430249998113,157.99430249998113,157.99430249998113,157.99430249998113,158.97855800000252,158.97855800000252,159.86319389997516,c,1,0.8693748000077903,None,,,,,,,,,,,,,,,02,001,2025-10-03_14h53.18.482,motorselection,,2025.1.1,60.01720092102189,2025-10-03 14h53.46.410391 +0530,
-150,z,55,3,13,z,1,0.8677675999933854,None,,,,,13,3,55,3,,,,,159.87829749996308,,159.864440299978,159.87829749996308,160.87831010000082,160.87831010000082,160.87831010000082,160.87831010000082,160.87831010000082,161.87807899998734,161.87807899998734,162.7634014999494,z,1,0.8677675999933854,None,,,,,,,,,,,,,,,02,001,2025-10-03_14h53.18.482,motorselection,,2025.1.1,60.01720092102189,2025-10-03 14h53.46.410391 +0530,
-50,x,56,0,14,x,1,1.0464183000149205,None,,,,,14,0,56,0,,,,,162.7781242999481,,162.76487859996269,162.7781242999481,163.77810090000276,163.77810090000276,163.77810090000276,163.77810090000276,163.77810090000276,164.7778492999496,164.7778492999496,165.82883979997132,x,1,1.0464183000149205,None,,,,,,,,,,,,,,,02,001,2025-10-03_14h53.18.482,motorselection,,2025.1.1,60.01720092102189,2025-10-03 14h53.46.410391 +0530,
150,v,57,1,14,v,1,0.7519199000089429,None,,,,,14,1,57,1,,,,,165.84429059998365,,165.8299155999557,165.84429059998365,166.84424379997654,166.84424379997654,166.84424379997654,166.84424379997654,166.84424379997654,167.8441874999553,167.8441874999553,168.61146220000228,v,1,0.7519199000089429,None,,,,,,,,,,,,,,,02,001,2025-10-03_14h53.18.482,motorselection,,2025.1.1,60.01720092102189,2025-10-03 14h53.46.410391 +0530,
50,c,58,2,14,c,1,0.6442898000241257,None,,,,,14,2,58,2,,,,,168.62702689995058,,168.6123774999869,168.62702689995058,169.62742589996196,169.62742589996196,169.62742589996196,169.62742589996196,169.62742589996196,170.62670819996856,170.62670819996856,171.27831480000168,c,1,0.6442898000241257,None,,,,,,,,,,,,,,,02,001,2025-10-03_14h53.18.482,motorselection,,2025.1.1,60.01720092102189,2025-10-03 14h53.46.410391 +0530,
-150,z,59,3,14,z,1,0.7221977000008337,None,,,,,14,3,59,3,,,,,171.29391509998823,,171.27937869995367,171.29391509998823,172.293729899975,172.293729899975,172.293729899975,172.293729899975,172.293729899975,173.29306799999904,173.29306799999904,174.0275250999839,z,1,0.7221977000008337,None,,,,,,,,,,,,,,,02,001,2025-10-03_14h53.18.482,motorselection,,2025.1.1,60.01720092102189,2025-10-03 14h53.46.410391 +0530,
-50,x,60,0,15,x,1,0.7283298999536783,None,,,,,15,0,60,0,,,,,174.04302250000183,,174.02832969999872,174.04302250000183,175.02686029998586,175.02686029998586,175.02686029998586,175.02686029998586,175.04355329996906,176.02674379997188,176.02674379997188,176.7597761999932,x,1,0.7283298999536783,None,,,,,,,,,,,,,,,02,001,2025-10-03_14h53.18.482,motorselection,,2025.1.1,60.01720092102189,2025-10-03 14h53.46.410391 +0530,
150,v,61,1,15,v,1,0.6656710000243038,None,,,,,15,1,61,1,,,,,176.77629680000246,,176.76022159995046,176.77629680000246,177.7595839999849,177.7595839999849,177.7595839999849,177.7595839999849,177.77625589998206,178.75944289995823,178.75944289995823,179.42702859995188,v,1,0.6656710000243038,None,,,,,,,,,,,,,,,02,001,2025-10-03_14h53.18.482,motorselection,,2025.1.1,60.01720092102189,2025-10-03 14h53.46.410391 +0530,
50,c,62,2,15,c,1,0.7356971999979578,None,,,,,15,2,62,2,,,,,179.44272219995037,,179.42781529994681,179.44272219995037,180.426221599977,180.426221599977,180.426221599977,180.426221599977,180.44267229997786,181.4424630999565,181.4424630999565,182.1943021999905,c,1,0.7356971999979578,None,,,,,,,,,,,,,,,02,001,2025-10-03_14h53.18.482,motorselection,,2025.1.1,60.01720092102189,2025-10-03 14h53.46.410391 +0530,
-150,z,63,3,15,z,1,0.5220411000191234,None,,,,,15,3,63,3,,,,,182.20952729997225,,182.1956480999943,182.20952729997225,183.20908149995375,183.20908149995375,183.20908149995375,183.20908149995375,183.20908149995375,184.20854979997966,184.20854979997966,184.7423129999661,z,1,0.5220411000191234,None,,,,,,,,,,,,,,,02,001,2025-10-03_14h53.18.482,motorselection,,2025.1.1,60.01720092102189,2025-10-03 14h53.46.410391 +0530,
-50,x,64,0,16,x,1,0.574595500016585,None,,,,,16,0,64,0,,,,,184.75834929995472,,184.74275529995793,184.75834929995472,185.74169830000028,185.74169830000028,185.74169830000028,185.74169830000028,185.75822419999167,186.74177209998015,186.74177209998015,187.3254199999501,x,1,0.574595500016585,None,,,,,,,,,,,,,,,02,001,2025-10-03_14h53.18.482,motorselection,,2025.1.1,60.01720092102189,2025-10-03 14h53.46.410391 +0530,
150,v,65,1,16,v,1,0.7097163000144064,None,,,,,16,1,65,1,,,,,187.3418097999529,,187.32569279999007,187.3418097999529,188.325340099982,188.325340099982,188.325340099982,188.325340099982,188.34186159999808,189.32510839996394,189.32510839996394,190.04290449997643,v,1,0.7097163000144064,None,,,,,,,,,,,,,,,02,001,2025-10-03_14h53.18.482,motorselection,,2025.1.1,60.01720092102189,2025-10-03 14h53.46.410391 +0530,
50,c,66,2,16,c,1,0.6039874999551103,None,,,,,16,2,66,2,,,,,190.05847089999588,,190.04382729995996,190.05847089999588,191.05857549997745,191.05857549997745,191.05857549997745,191.05857549997745,191.05857549997745,192.05840159999207,192.05840159999207,192.67631359997904,c,1,0.6039874999551103,None,,,,,,,,,,,,,,,02,001,2025-10-03_14h53.18.482,motorselection,,2025.1.1,60.01720092102189,2025-10-03 14h53.46.410391 +0530,
-150,z,67,3,16,z,1,0.7314572000177577,None,,,,,16,3,67,3,,,,,192.6916729999939,,192.67741859995294,192.6916729999939,193.69099029997597,193.69099029997597,193.69099029997597,193.69099029997597,193.69099029997597,194.69099569995888,194.69099569995888,195.42586129996926,z,1,0.7314572000177577,None,,,,,,,,,,,,,,,02,001,2025-10-03_14h53.18.482,motorselection,,2025.1.1,60.01720092102189,2025-10-03 14h53.46.410391 +0530,
-50,x,68,0,17,x,1,0.7331243999651633,None,,,,,17,0,68,0,,,,,195.4412153000012,,195.4269079999649,195.4412153000012,196.44133849994978,196.44133849994978,196.44133849994978,196.44133849994978,196.44133849994978,197.44116659997962,197.44116659997962,198.19066079996992,x,1,0.7331243999651633,None,,,,,,,,,,,,,,,02,001,2025-10-03_14h53.18.482,motorselection,,2025.1.1,60.01720092102189,2025-10-03 14h53.46.410391 +0530,
150,v,69,1,17,v,1,0.5628069000085816,None,,,,,17,1,69,1,,,,,198.20735349995084,,198.19117589999223,198.20735349995084,199.1911094999523,199.1911094999523,199.1911094999523,199.1911094999523,199.20771259994945,200.19060769997304,200.19060769997304,200.7579839999671,v,1,0.5628069000085816,None,,,,,,,,,,,,,,,02,001,2025-10-03_14h53.18.482,motorselection,,2025.1.1,60.01720092102189,2025-10-03 14h53.46.410391 +0530,
50,c,70,2,17,c,1,0.6768396999686956,None,,,,,17,2,70,2,,,,,200.77376929996535,,200.7586985999951,200.77376929996535,201.75742219999665,201.75742219999665,201.75742219999665,201.75742219999665,201.77412739995634,202.7570455999812,202.7570455999812,203.4411208999809,c,1,0.6768396999686956,None,,,,,,,,,,,,,,,02,001,2025-10-03_14h53.18.482,motorselection,,2025.1.1,60.01720092102189,2025-10-03 14h53.46.410391 +0530,
-150,z,71,3,17,z,1,0.5978215000359342,None,,,,,17,3,71,3,,,,,203.45692909997888,,203.44180639996193,203.45692909997888,204.44055619998835,204.44055619998835,204.44055619998835,204.44055619998835,204.45748159999494,205.45679509994807,205.45679509994807,206.05729269998847,z,1,0.5978215000359342,None,,,,,,,,,,,,,,,02,001,2025-10-03_14h53.18.482,motorselection,,2025.1.1,60.01720092102189,2025-10-03 14h53.46.410391 +0530,
-50,x,72,0,18,x,1,0.6734375000232831,None,,,,,18,0,72,0,,,,,206.0732621999923,,206.05802959995344,206.0732621999923,207.05677089997334,207.05677089997334,207.05677089997334,207.05677089997334,207.0728267999948,208.0568770999671,208.0568770999671,208.7413357999758,x,1,0.6734375000232831,None,,,,,,,,,,,,,,,02,001,2025-10-03_14h53.18.482,motorselection,,2025.1.1,60.01720092102189,2025-10-03 14h53.46.410391 +0530,
150,v,73,1,18,v,1,0.723594100039918,None,,,,,18,1,73,1,,,,,208.7567692999728,,208.74242929997854,208.7567692999728,209.75673679995816,209.75673679995816,209.75673679995816,209.75673679995816,209.75673679995816,210.75664219999453,210.75664219999453,211.4901155999978,v,1,0.723594100039918,None,,,,,,,,,,,,,,,02,001,2025-10-03_14h53.18.482,motorselection,,2025.1.1,60.01720092102189,2025-10-03 14h53.46.410391 +0530,
50,c,74,2,18,c,1,0.5743448000284843,None,,,,,18,2,74,2,,,,,211.506018999964,,211.49075139994966,211.506018999964,212.4889854999492,212.4889854999492,212.4889854999492,212.4889854999492,212.50563779997174,213.48970539995935,213.48970539995935,214.073161599983,c,1,0.5743448000284843,None,,,,,,,,,,,,,,,02,001,2025-10-03_14h53.18.482,motorselection,,2025.1.1,60.01720092102189,2025-10-03 14h53.46.410391 +0530,
-150,z,75,3,18,z,1,0.9363935000146739,None,,,,,18,3,75,3,,,,,214.08908449998125,,214.07375209999736,214.08908449998125,215.0729664999526,215.0729664999526,215.0729664999526,215.0729664999526,215.0895808999776,216.07183909998275,216.07183909998275,217.02326089999406,z,1,0.9363935000146739,None,,,,,,,,,,,,,,,02,001,2025-10-03_14h53.18.482,motorselection,,2025.1.1,60.01720092102189,2025-10-03 14h53.46.410391 +0530,
-50,x,76,0,19,x,1,0.9989718999713659,None,,,,,19,0,76,0,,,,,217.03884809999727,,217.02405139995972,217.03884809999727,218.02259619999677,218.02259619999677,218.02259619999677,218.02259619999677,218.03926179994596,219.0224837999558,219.0224837999558,220.02313979994506,x,1,0.9989718999713659,None,,,,,,,,,,,,,,,02,001,2025-10-03_14h53.18.482,motorselection,,2025.1.1,60.01720092102189,2025-10-03 14h53.46.410391 +0530,
150,v,77,1,19,v,1,0.6700833999784663,None,,,,,19,1,77,1,,,,,220.03863139997702,,220.0240397999878,220.03863139997702,221.03857769997558,221.03857769997558,221.03857769997558,221.03857769997558,221.03857769997558,222.03883779997705,222.03883779997705,222.7228561999509,v,1,0.6700833999784663,None,,,,,,,,,,,,,,,02,001,2025-10-03_14h53.18.482,motorselection,,2025.1.1,60.01720092102189,2025-10-03 14h53.46.410391 +0530,
50,c,78,2,19,c,1,0.49924679996911436,None,,,,,19,2,78,2,,,,,222.73811499995645,,222.72358939994592,222.73811499995645,223.73847749998095,223.73847749998095,223.73847749998095,223.73847749998095,223.73847749998095,224.7384419000009,224.7384419000009,225.23822059994563,c,1,0.49924679996911436,None,,,,,,,,,,,,,,,02,001,2025-10-03_14h53.18.482,motorselection,,2025.1.1,60.01720092102189,2025-10-03 14h53.46.410391 +0530,
-150,z,79,3,19,z,1,0.703446300001815,None,,,,,19,3,79,3,,,,,225.25468049995834,,225.23863349994645,225.25468049995834,226.23836759995902,226.23836759995902,226.23836759995902,226.23836759995902,226.25502949999645,227.2379515999928,227.2379515999928,227.95635789999506,z,1,0.703446300001815,None,,,,,,,,,,,,,,,02,001,2025-10-03_14h53.18.482,motorselection,,2025.1.1,60.01720092102189,2025-10-03 14h53.46.410391 +0530,
-50,x,80,0,20,x,1,0.8149285999825224,None,,,,,20,0,80,0,,,,,227.97155179997208,,227.95780259999447,227.97155179997208,228.97148259996902,228.97148259996902,228.97148259996902,228.97148259996902,228.97148259996902,229.97134099999676,229.97134099999676,230.78961499995785,x,1,0.8149285999825224,None,,,,,,,,,,,,,,,02,001,2025-10-03_14h53.18.482,motorselection,,2025.1.1,60.01720092102189,2025-10-03 14h53.46.410391 +0530,
150,v,81,1,20,v,1,0.6533675999962725,None,,,,,20,1,81,1,,,,,230.80459879996488,,230.79107499995735,230.80459879996488,231.80438210000284,231.80438210000284,231.80438210000284,231.80438210000284,231.80438210000284,232.80427369999234,232.80427369999234,233.47135939996224,v,1,0.6533675999962725,None,,,,,,,,,,,,,,,02,001,2025-10-03_14h53.18.482,motorselection,,2025.1.1,60.01720092102189,2025-10-03 14h53.46.410391 +0530,
50,c,82,2,20,c,1,0.7098300000070594,None,,,,,20,2,82,2,,,,,233.48715519998223,,233.472171899979,233.48715519998223,234.48718689999077,234.48718689999077,234.48718689999077,234.48718689999077,234.48718689999077,235.48725969996303,235.48725969996303,236.20429009996587,c,1,0.7098300000070594,None,,,,,,,,,,,,,,,02,001,2025-10-03_14h53.18.482,motorselection,,2025.1.1,60.01720092102189,2025-10-03 14h53.46.410391 +0530,
-150,z,83,3,20,z,1,0.5862654999946244,None,,,,,20,3,83,3,,,,,236.22001339995768,,236.20514739997452,236.22001339995768,237.21982539998135,237.21982539998135,237.21982539998135,237.21982539998135,237.21982539998135,238.21964509994723,238.21964509994723,238.82049009995535,z,1,0.5862654999946244,None,,,,,,,,,,,,,,,02,001,2025-10-03_14h53.18.482,motorselection,,2025.1.1,60.01720092102189,2025-10-03 14h53.46.410391 +0530,
-50,x,84,0,21,x,1,0.6681434999918565,None,,,,,21,0,84,0,,,,,238.83631569996942,,238.82081669999752,238.83631569996942,239.8360955999815,239.8360955999815,239.8360955999815,239.8360955999815,239.8360955999815,240.81974139995873,240.81974139995873,241.50339929998154,x,1,0.6681434999918565,None,,,,,,,,,,,,,,,02,001,2025-10-03_14h53.18.482,motorselection,,2025.1.1,60.01720092102189,2025-10-03 14h53.46.410391 +0530,
150,v,85,1,21,v,1,0.5843892999691889,None,,,,,21,1,85,1,,,,,241.51983069995185,,241.504135999945,241.51983069995185,242.50340289995074,242.50340289995074,242.50340289995074,242.50340289995074,242.52004079998005,243.50323709996883,243.50323709996883,244.10444869997445,v,1,0.5843892999691889,None,,,,,,,,,,,,,,,02,001,2025-10-03_14h53.18.482,motorselection,,2025.1.1,60.01720092102189,2025-10-03 14h53.46.410391 +0530,
50,c,86,2,21,c,1,0.8498662000056356,None,,,,,21,2,86,2,,,,,244.11989619996166,,244.10548199998448,244.11989619996166,245.11985399998957,245.11985399998957,245.11985399998957,245.11985399998957,245.11985399998957,246.1194091999787,246.1194091999787,246.9706756999949,c,1,0.8498662000056356,None,,,,,,,,,,,,,,,02,001,2025-10-03_14h53.18.482,motorselection,,2025.1.1,60.01720092102189,2025-10-03 14h53.46.410391 +0530,
-150,z,87,3,21,z,1,0.6758228999678977,None,,,,,21,3,87,3,,,,,246.98588429996744,,246.9714171999949,246.98588429996744,247.9862551999977,247.9862551999977,247.9862551999977,247.9862551999977,247.9862551999977,248.9861301999772,248.9861301999772,249.66986809996888,z,1,0.6758228999678977,None,,,,,,,,,,,,,,,02,001,2025-10-03_14h53.18.482,motorselection,,2025.1.1,60.01720092102189,2025-10-03 14h53.46.410391 +0530,
-50,x,88,0,22,x,1,0.762742499995511,None,,,,,22,0,88,0,,,,,249.68560749996686,,249.67064419999951,249.68560749996686,250.68537539994577,250.68537539994577,250.68537539994577,250.68537539994577,250.68537539994577,251.68542519997573,251.68542519997573,252.45406869996805,x,1,0.762742499995511,None,,,,,,,,,,,,,,,02,001,2025-10-03_14h53.18.482,motorselection,,2025.1.1,60.01720092102189,2025-10-03 14h53.46.410391 +0530,
150,v,89,1,22,v,1,0.7094517999794334,None,,,,,22,1,89,1,,,,,252.4691082999925,,252.4553168999846,252.4691082999925,253.46906439994927,253.46906439994927,253.46906439994927,253.46906439994927,253.46906439994927,254.46877159998985,254.46877159998985,255.18611819995567,v,1,0.7094517999794334,None,,,,,,,,,,,,,,,02,001,2025-10-03_14h53.18.482,motorselection,,2025.1.1,60.01720092102189,2025-10-03 14h53.46.410391 +0530,
50,c,90,2,22,c,1,1.374311099993065,None,,,,,22,2,90,2,,,,,255.20184729999164,,255.18690869997954,255.20184729999164,256.18535529996734,256.18535529996734,256.18535529996734,256.18535529996734,256.20212589995936,257.185321500001,257.185321500001,258.57022709999,c,1,1.374311099993065,None,,,,,,,,,,,,,,,02,001,2025-10-03_14h53.18.482,motorselection,,2025.1.1,60.01720092102189,2025-10-03 14h53.46.410391 +0530,
-150,z,91,3,22,z,1,0.7646247999509797,None,,,,,22,3,91,3,,,,,258.5849670000025,,258.57186059997184,258.5849670000025,259.5850655999966,259.5850655999966,259.5850655999966,259.5850655999966,259.5850655999966,260.58485439996,260.58485439996,261.35235359997023,z,1,0.7646247999509797,None,,,,,,,,,,,,,,,02,001,2025-10-03_14h53.18.482,motorselection,,2025.1.1,60.01720092102189,2025-10-03 14h53.46.410391 +0530,
-50,x,92,0,23,x,1,3.84135610004887,None,,,,,23,0,92,0,,,,,261.36787269997876,,261.35324739996577,261.36787269997876,262.3681188999908,262.3681188999908,262.3681188999908,262.3681188999908,262.3681188999908,263.36766289995285,263.36766289995285,267.2187991999672,x,1,3.84135610004887,None,,,,,,,,,,,,,,,02,001,2025-10-03_14h53.18.482,motorselection,,2025.1.1,60.01720092102189,2025-10-03 14h53.46.410391 +0530,
150,v,93,1,23,v,1,0.9309778999886476,None,,,,,23,1,93,1,,,,,267.23424699995667,,267.2198823999497,267.23424699995667,268.23400179995224,268.23400179995224,268.23400179995224,268.23400179995224,268.23400179995224,269.2339395000017,269.2339395000017,270.16749849996995,v,1,0.9309778999886476,None,,,,,,,,,,,,,,,02,001,2025-10-03_14h53.18.482,motorselection,,2025.1.1,60.01720092102189,2025-10-03 14h53.46.410391 +0530,
50,c,94,2,23,c,1,0.7493893999489956,None,,,,,23,2,94,2,,,,,270.18321899999864,,270.16809329995885,270.18321899999864,271.1672753999592,271.1672753999592,271.1672753999592,271.1672753999592,271.18383009999525,272.1667376999976,272.1667376999976,272.918502799992,c,1,0.7493893999489956,None,,,,,,,,,,,,,,,02,001,2025-10-03_14h53.18.482,motorselection,,2025.1.1,60.01720092102189,2025-10-03 14h53.46.410391 +0530,
-150,z,95,3,23,z,1,0.8690113000338897,None,,,,,23,3,95,3,,,,,272.9336206999724,,272.9197800999973,272.9336206999724,273.93325959995855,273.93325959995855,273.93325959995855,273.93325959995855,273.93325959995855,274.93287849996705,274.93287849996705,275.816629799956,z,1,0.8690113000338897,None,,,,,,,,,,,,,,,02,001,2025-10-03_14h53.18.482,motorselection,,2025.1.1,60.01720092102189,2025-10-03 14h53.46.410391 +0530,
-50,x,96,0,24,x,1,0.727089399995748,None,,,,,24,0,96,0,,,,,275.83276689995546,,275.8171016999986,275.83276689995546,276.81631169997854,276.81631169997854,276.81631169997854,276.81631169997854,276.83278739999514,277.81617009994807,277.81617009994807,278.5503529999987,x,1,0.727089399995748,None,,,,,,,,,,,,,,,02,001,2025-10-03_14h53.18.482,motorselection,,2025.1.1,60.01720092102189,2025-10-03 14h53.46.410391 +0530,
150,v,97,1,24,v,1,0.6690775000024587,None,,,,,24,1,97,1,,,,,278.56615129997954,,278.55120749998605,278.56615129997954,279.54974229994696,279.54974229994696,279.54974229994696,279.54974229994696,279.56635439995443,280.5658967999625,280.5658967999625,281.25120219995733,v,1,0.6690775000024587,None,,,,,,,,,,,,,,,02,001,2025-10-03_14h53.18.482,motorselection,,2025.1.1,60.01720092102189,2025-10-03 14h53.46.410391 +0530,
50,c,98,2,24,c,1,0.7753477999940515,None,,,,,24,2,98,2,,,,,281.26625609997427,,281.25265280000167,281.26625609997427,282.26613949995954,282.26613949995954,282.26613949995954,282.26613949995954,282.26613949995954,283.26560109999264,283.26560109999264,284.04939669999294,c,1,0.7753477999940515,None,,,,,,,,,,,,,,,02,001,2025-10-03_14h53.18.482,motorselection,,2025.1.1,60.01720092102189,2025-10-03 14h53.46.410391 +0530,
-150,z,99,3,24,z,1,1.047483700036537,None,,,,,24,3,99,3,,,,,284.0652576999855,,284.04998479998903,284.0652576999855,285.0492715999717,285.0492715999717,285.0492715999717,285.0492715999717,285.0656933999853,286.04919329995755,286.04919329995755,287.09943740000017,z,1,1.047483700036537,None,,,,,,,,,,,,,,,02,001,2025-10-03_14h53.18.482,motorselection,,2025.1.1,60.01720092102189,2025-10-03 14h53.46.410391 +0530,
-50,x,100,0,25,x,1,1.1133086000336334,None,,,,,25,0,100,0,,,,,287.11513179994654,,287.1001505999593,287.11513179994654,288.09880899998825,288.09880899998825,288.09880899998825,288.09880899998825,288.1154637999716,289.1152910999954,289.1152910999954,290.23235209996346,x,1,1.1133086000336334,None,,,,,,,,,,,,,,,02,001,2025-10-03_14h53.18.482,motorselection,,2025.1.1,60.01720092102189,2025-10-03 14h53.46.410391 +0530,
150,v,101,1,25,v,1,0.7093879000167362,None,,,,,25,1,101,1,,,,,290.2482621999807,,290.2331368000014,290.2482621999807,291.23152859997936,291.23152859997936,291.23152859997936,291.23152859997936,291.2481824999559,292.24831169995014,292.24831169995014,292.9665052999626,v,1,0.7093879000167362,None,,,,,,,,,,,,,,,02,001,2025-10-03_14h53.18.482,motorselection,,2025.1.1,60.01720092102189,2025-10-03 14h53.46.410391 +0530,
50,c,102,2,25,c,1,0.8043078000191599,None,,,,,25,2,102,2,,,,,292.98164509999333,,292.96773279999616,292.98164509999333,293.9816004000022,293.9816004000022,293.9816004000022,293.9816004000022,293.9816004000022,294.9810689999722,294.9810689999722,295.79804329999024,c,1,0.8043078000191599,None,,,,,,,,,,,,,,,02,001,2025-10-03_14h53.18.482,motorselection,,2025.1.1,60.01720092102189,2025-10-03 14h53.46.410391 +0530,
-150,z,103,3,25,z,1,0.7067612000391819,None,,,,,25,3,103,3,,,,,295.8141058999463,,295.7984552999842,295.8141058999463,296.7975222999812,296.7975222999812,296.7975222999812,296.7975222999812,296.81456859997706,297.7979856999591,297.7979856999591,298.51585409999825,z,1,0.7067612000391819,None,,,,,,,,,,,,,,,02,001,2025-10-03_14h53.18.482,motorselection,,2025.1.1,60.01720092102189,2025-10-03 14h53.46.410391 +0530,
-50,x,104,0,26,x,1,0.7088061000104062,None,,,,,26,0,104,0,,,,,298.5311689999653,,298.51716429996304,298.5311689999653,299.53099040000234,299.53099040000234,299.53099040000234,299.53099040000234,299.53099040000234,300.53089229995385,300.53089229995385,301.2479686999577,x,1,0.7088061000104062,None,,,,,,,,,,,,,,,02,001,2025-10-03_14h53.18.482,motorselection,,2025.1.1,60.01720092102189,2025-10-03 14h53.46.410391 +0530,
150,v,105,1,26,v,1,0.8877481000381522,None,,,,,26,1,105,1,,,,,301.26371859997744,,301.2486542999977,301.26371859997744,302.247035999957,302.247035999957,302.247035999957,302.247035999957,302.26349250000203,303.263381799974,303.263381799974,304.1645900000003,v,1,0.8877481000381522,None,,,,,,,,,,,,,,,02,001,2025-10-03_14h53.18.482,motorselection,,2025.1.1,60.01720092102189,2025-10-03 14h53.46.410391 +0530,
50,c,106,2,26,c,1,0.9301973000401631,None,,,,,26,2,106,2,,,,,304.1801736999769,,304.1654823999852,304.1801736999769,305.16379979997873,305.16379979997873,305.16379979997873,305.16379979997873,305.1805058000027,306.1801243999507,306.1801243999507,307.1149869999499,c,1,0.9301973000401631,None,,,,,,,,,,,,,,,02,001,2025-10-03_14h53.18.482,motorselection,,2025.1.1,60.01720092102189,2025-10-03 14h53.46.410391 +0530,
-150,z,107,3,26,z,1,0.46574539999710396,None,,,,,26,3,107,3,,,,,307.130314799957,,307.1162593999761,307.130314799957,308.1301295000012,308.1301295000012,308.1301295000012,308.1301295000012,308.1301295000012,309.1301089999615,309.1301089999615,309.5973112999927,z,1,0.46574539999710396,None,,,,,,,,,,,,,,,02,001,2025-10-03_14h53.18.482,motorselection,,2025.1.1,60.01720092102189,2025-10-03 14h53.46.410391 +0530,
-50,x,108,0,27,x,1,0.6445138999843039,None,,,,,27,0,108,0,,,,,309.61313339998014,,309.5982259999728,309.61313339998014,310.59662919997936,310.59662919997936,310.59662919997936,310.59662919997936,310.6132876999909,311.61239029996796,311.61239029996796,312.2625241999631,x,1,0.6445138999843039,None,,,,,,,,,,,,,,,02,001,2025-10-03_14h53.18.482,motorselection,,2025.1.1,60.01720092102189,2025-10-03 14h53.46.410391 +0530,
150,v,109,1,27,v,1,0.5936134999501519,None,,,,,27,1,109,1,,,,,312.2795617999509,,312.2627725999919,312.2795617999509,313.26209399994696,313.26209399994696,313.26209399994696,313.26209399994696,313.2787552999798,314.26214969996363,314.26214969996363,314.86224699998274,v,1,0.5936134999501519,None,,,,,,,,,,,,,,,02,001,2025-10-03_14h53.18.482,motorselection,,2025.1.1,60.01720092102189,2025-10-03 14h53.46.410391 +0530,
50,c,110,2,27,c,1,1.2393226000131108,None,,,,,27,2,110,2,,,,,314.8792117999983,,314.86248039995553,314.8792117999983,315.86257919995114,315.86257919995114,315.86257919995114,315.86257919995114,315.8790836999542,316.8623290999676,316.8623290999676,318.1138498999644,c,1,1.2393226000131108,None,,,,,,,,,,,,,,,02,001,2025-10-03_14h53.18.482,motorselection,,2025.1.1,60.01720092102189,2025-10-03 14h53.46.410391 +0530,
-150,z,111,3,27,z,1,0.6098173999926075,None,,,,,27,3,111,3,,,,,318.12874619994545,,318.1149168999982,318.12874619994545,319.12852369999746,319.12852369999746,319.12852369999746,319.12852369999746,319.12852369999746,320.12897829996655,320.12897829996655,320.74598079995485,z,1,0.6098173999926075,None,,,,,,,,,,,,,,,02,001,2025-10-03_14h53.18.482,motorselection,,2025.1.1,60.01720092102189,2025-10-03 14h53.46.410391 +0530,
-50,x,112,0,28,x,1,1.3383113999734633,None,,,,,28,0,112,0,,,,,320.7618261000025,,320.74667679995764,320.7618261000025,321.7455599999521,321.7455599999521,321.7455599999521,321.7455599999521,321.7622335999622,322.745382699999,322.745382699999,324.0967553999508,x,1,1.3383113999734633,None,,,,,,,,,,,,,,,02,001,2025-10-03_14h53.18.482,motorselection,,2025.1.1,60.01720092102189,2025-10-03 14h53.46.410391 +0530,
150,v,113,1,28,v,1,1.2170142999966629,None,,,,,28,1,113,1,,,,,324.1119303999585,,324.09802639996633,324.1119303999585,325.1118379999534,325.1118379999534,325.1118379999534,325.1118379999534,325.1118379999534,326.11139709997224,326.11139709997224,327.3461514999508,v,1,1.2170142999966629,None,,,,,,,,,,,,,,,02,001,2025-10-03_14h53.18.482,motorselection,,2025.1.1,60.01720092102189,2025-10-03 14h53.46.410391 +0530,
50,c,114,2,28,c,1,0.8338796999887563,None,,,,,28,2,114,2,,,,,327.3613917999901,,327.34725099999923,327.3613917999901,328.36102679994656,328.36102679994656,328.36102679994656,328.36102679994656,328.36102679994656,329.36092959996313,329.36092959996313,330.2120942999609,c,1,0.8338796999887563,None,,,,,,,,,,,,,,,02,001,2025-10-03_14h53.18.482,motorselection,,2025.1.1,60.01720092102189,2025-10-03 14h53.46.410391 +0530,
-150,z,115,3,28,z,1,0.720860300003551,None,,,,,28,3,115,3,,,,,330.22761559998617,,330.2130088999984,330.22761559998617,331.22789759997977,331.22789759997977,331.22789759997977,331.22789759997977,331.22789759997977,332.22766789997695,332.22766789997695,332.9625203999458,z,1,0.720860300003551,None,,,,,,,,,,,,,,,02,001,2025-10-03_14h53.18.482,motorselection,,2025.1.1,60.01720092102189,2025-10-03 14h53.46.410391 +0530,
-50,x,116,0,29,x,1,1.041200999985449,None,,,,,29,0,116,0,,,,,332.9777173999464,,332.96397379995324,332.9777173999464,333.9776038999553,333.9776038999553,333.9776038999553,333.9776038999553,333.9776038999553,334.97707470000023,334.97707470000023,336.0280715999543,x,1,1.041200999985449,None,,,,,,,,,,,,,,,02,001,2025-10-03_14h53.18.482,motorselection,,2025.1.1,60.01720092102189,2025-10-03 14h53.46.410391 +0530,
150,v,117,1,29,v,1,0.5708973000291735,None,,,,,29,1,117,1,,,,,336.04350029997295,,336.02895179996267,336.04350029997295,337.04340579995187,337.04340579995187,337.04340579995187,337.04340579995187,337.04340579995187,338.043827699963,338.043827699963,338.62830349995056,v,1,0.5708973000291735,None,,,,,,,,,,,,,,,02,001,2025-10-03_14h53.18.482,motorselection,,2025.1.1,60.01720092102189,2025-10-03 14h53.46.410391 +0530,
50,c,118,2,29,c,1,0.6670028000371531,None,,,,,29,2,118,2,,,,,338.6436525999452,,338.6293364999583,338.6436525999452,339.64307890000055,339.64307890000055,339.64307890000055,339.64307890000055,339.64307890000055,340.6435995999491,340.6435995999491,341.32725609996123,c,1,0.6670028000371531,None,,,,,,,,,,,,,,,02,001,2025-10-03_14h53.18.482,motorselection,,2025.1.1,60.01720092102189,2025-10-03 14h53.46.410391 +0530,
-150,z,119,3,29,z,1,0.6311370999901555,None,,,,,29,3,119,3,,,,,341.34301299997605,,341.32796259998577,341.34301299997605,342.32679089996964,342.32679089996964,342.32679089996964,342.32679089996964,342.3434769999585,343.3427792000002,343.3427792000002,343.97650859999703,z,1,0.6311370999901555,None,,,,,,,,,,,,,,,02,001,2025-10-03_14h53.18.482,motorselection,,2025.1.1,60.01720092102189,2025-10-03 14h53.46.410391 +0530,
-50,x,120,0,30,x,1,0.6002309999894351,None,,,,,30,0,120,0,,,,,343.9926479999558,,343.9769965999876,343.9926479999558,344.9764838999836,344.9764838999836,344.9764838999836,344.9764838999836,344.9931542999693,345.97607389994664,345.97607389994664,346.59328439994715,x,1,0.6002309999894351,None,,,,,,,,,,,,,,,02,001,2025-10-03_14h53.18.482,motorselection,,2025.1.1,60.01720092102189,2025-10-03 14h53.46.410391 +0530,
150,v,121,1,30,v,1,0.5376811999594793,None,,,,,30,1,121,1,,,,,346.60927859996445,,346.59412809996866,346.60927859996445,347.5929259999539,347.5929259999539,347.5929259999539,347.5929259999539,347.6095573999919,348.59272919996874,348.59272919996874,349.14319269999396,v,1,0.5376811999594793,None,,,,,,,,,,,,,,,02,001,2025-10-03_14h53.18.482,motorselection,,2025.1.1,60.01720092102189,2025-10-03 14h53.46.410391 +0530,
50,c,122,2,30,c,1,0.7480800999910571,None,,,,,30,2,122,2,,,,,349.1590421999572,,349.14388709998457,349.1590421999572,350.14266779995523,350.14266779995523,350.14266779995523,350.14266779995523,350.15927179995924,351.1425910999533,351.1425910999533,351.8942815999617,c,1,0.7480800999910571,None,,,,,,,,,,,,,,,02,001,2025-10-03_14h53.18.482,motorselection,,2025.1.1,60.01720092102189,2025-10-03 14h53.46.410391 +0530,
-150,z,123,3,30,z,1,0.6199046000256203,None,,,,,30,3,123,3,,,,,351.90911269997014,,351.89587700000266,351.90911269997014,352.90865449997364,352.90865449997364,352.90865449997364,352.90865449997364,352.90865449997364,353.90856519999215,353.90856519999215,354.54285009996966,z,1,0.6199046000256203,None,,,,,,,,,,,,,,,02,001,2025-10-03_14h53.18.482,motorselection,,2025.1.1,60.01720092102189,2025-10-03 14h53.46.410391 +0530,
-50,x,124,0,31,x,1,0.7804879999603145,None,,,,,31,0,124,0,,,,,354.55849499994656,,354.5437280999613,354.55849499994656,355.54208919999655,355.54208919999655,355.54208919999655,355.54208919999655,355.5587719999603,356.55847069999436,356.55847069999436,357.34274909994565,x,1,0.7804879999603145,None,,,,,,,,,,,,,,,02,001,2025-10-03_14h53.18.482,motorselection,,2025.1.1,60.01720092102189,2025-10-03 14h53.46.410391 +0530,
150,v,125,1,31,v,1,0.592136199993547,None,,,,,31,1,125,1,,,,,357.35819199995603,,357.34364119998645,357.35819199995603,358.358606499969,358.358606499969,358.358606499969,358.358606499969,358.358606499969,359.35835209995275,359.35835209995275,359.95876069995575,v,1,0.592136199993547,None,,,,,,,,,,,,,,,02,001,2025-10-03_14h53.18.482,motorselection,,2025.1.1,60.01720092102189,2025-10-03 14h53.46.410391 +0530,
50,c,126,2,31,c,1,0.48882569995475933,None,,,,,31,2,126,2,,,,,359.97447369998554,,359.95946489996277,359.97447369998554,360.95823289995315,360.95823289995315,360.95823289995315,360.95823289995315,360.9746455999557,361.95801889995346,361.95801889995346,362.4592878999538,c,1,0.48882569995475933,None,,,,,,,,,,,,,,,02,001,2025-10-03_14h53.18.482,motorselection,,2025.1.1,60.01720092102189,2025-10-03 14h53.46.410391 +0530,
-150,z,127,3,31,z,1,0.8044989000190981,None,,,,,31,3,127,3,,,,,362.4745462999563,,362.46017669996945,362.4745462999563,363.47416939999675,363.47416939999675,363.47416939999675,363.47416939999675,363.47416939999675,364.47378030000255,364.47378030000255,365.29066729999613,z,1,0.8044989000190981,None,,,,,,,,,,,,,,,02,001,2025-10-03_14h53.18.482,motorselection,,2025.1.1,60.01720092102189,2025-10-03 14h53.46.410391 +0530,
-50,x,128,0,32,x,1,0.6307454000343569,None,,,,,32,0,128,0,,,,,365.3070027999929,,365.29106149997097,365.3070027999929,366.2901123999618,366.2901123999618,366.2901123999618,366.2901123999618,366.3067839999567,367.2901108999504,367.2901108999504,367.92428699997254,x,1,0.6307454000343569,None,,,,,,,,,,,,,,,02,001,2025-10-03_14h53.18.482,motorselection,,2025.1.1,60.01720092102189,2025-10-03 14h53.46.410391 +0530,
150,v,129,1,32,v,1,0.6190878999768756,None,,,,,32,1,129,1,,,,,367.94029820000287,,367.92495159996906,367.94029820000287,368.92398219997995,368.92398219997995,368.92398219997995,368.92398219997995,368.9407841999782,369.9235683999723,369.9235683999723,370.5578402999672,v,1,0.6190878999768756,None,,,,,,,,,,,,,,,02,001,2025-10-03_14h53.18.482,motorselection,,2025.1.1,60.01720092102189,2025-10-03 14h53.46.410391 +0530,
50,c,130,2,32,c,1,0.46620060002896935,None,,,,,32,2,130,2,,,,,370.5736931999563,,370.55862079997314,370.5736931999563,371.55721099994844,371.55721099994844,371.55721099994844,371.55721099994844,371.57374669995625,372.57308309996733,372.57308309996733,373.04170529998373,c,1,0.46620060002896935,None,,,,,,,,,,,,,,,02,001,2025-10-03_14h53.18.482,motorselection,,2025.1.1,60.01720092102189,2025-10-03 14h53.46.410391 +0530,
-150,z,131,3,32,z,1,0.6167674000025727,None,,,,,32,3,131,3,,,,,373.05693649995374,,373.04289799998514,373.05693649995374,374.05656669999007,374.05656669999007,374.05656669999007,374.05656669999007,374.05656669999007,375.05683059996227,375.05683059996227,375.6912600999931,z,1,0.6167674000025727,None,,,,,,,,,,,,,,,02,001,2025-10-03_14h53.18.482,motorselection,,2025.1.1,60.01720092102189,2025-10-03 14h53.46.410391 +0530,
-50,x,132,0,33,x,1,0.7630983999697492,None,,,,,33,0,132,0,,,,,375.70625669998117,,375.69270719995257,375.70625669998117,376.7058061999851,376.7058061999851,376.7058061999851,376.7058061999851,376.7058061999851,377.7061799999792,377.7061799999792,378.4733022999717,x,1,0.7630983999697492,None,,,,,,,,,,,,,,,02,001,2025-10-03_14h53.18.482,motorselection,,2025.1.1,60.01720092102189,2025-10-03 14h53.46.410391 +0530,
150,v,133,1,33,v,1,0.560192399949301,None,,,,,33,1,133,1,,,,,378.4892420999822,,378.4740284999716,378.4892420999822,379.4726054999628,379.4726054999628,379.4726054999628,379.4726054999628,379.48908420000225,380.4886563999462,380.4886563999462,381.0576562999631,v,1,0.560192399949301,None,,,,,,,,,,,,,,,02,001,2025-10-03_14h53.18.482,motorselection,,2025.1.1,60.01720092102189,2025-10-03 14h53.46.410391 +0530,
50,c,134,2,33,c,1,0.7523393000010401,None,,,,,33,2,134,2,,,,,381.0728849999723,,381.05889679997927,381.0728849999723,382.0724339999724,382.0724339999724,382.0724339999724,382.0724339999724,382.0724339999724,383.07234019995667,383.07234019995667,383.84073519997764,c,1,0.7523393000010401,None,,,,,,,,,,,,,,,02,001,2025-10-03_14h53.18.482,motorselection,,2025.1.1,60.01720092102189,2025-10-03 14h53.46.410391 +0530,
-150,z,135,3,33,z,1,0.6345013999962248,None,,,,,33,3,135,3,,,,,383.85591230000136,,383.84199849999277,383.85591230000136,384.855727999995,384.855727999995,384.855727999995,384.855727999995,384.855727999995,385.8557310999604,385.8557310999604,386.50607219996164,z,1,0.6345013999962248,None,,,,,,,,,,,,,,,02,001,2025-10-03_14h53.18.482,motorselection,,2025.1.1,60.01720092102189,2025-10-03 14h53.46.410391 +0530,
-50,x,136,0,34,x,1,1.796057200001087,None,,,,,34,0,136,0,,,,,386.5218426999636,,386.506797799957,386.5218426999636,387.50556709995726,387.50556709995726,387.50556709995726,387.50556709995726,387.5222162999562,388.5215976999607,388.5215976999607,390.32231439999305,x,1,1.796057200001087,None,,,,,,,,,,,,,,,02,001,2025-10-03_14h53.18.482,motorselection,,2025.1.1,60.01720092102189,2025-10-03 14h53.46.410391 +0530,
150,v,137,1,34,v,1,0.6736429000156932,None,,,,,34,1,137,1,,,,,390.33811529999366,,390.32302609999897,390.33811529999366,391.32159199996386,391.32159199996386,391.32159199996386,391.32159199996386,391.3384750999976,392.32133789994987,392.32133789994987,393.0065138999489,v,1,0.6736429000156932,None,,,,,,,,,,,,,,,02,001,2025-10-03_14h53.18.482,motorselection,,2025.1.1,60.01720092102189,2025-10-03 14h53.46.410391 +0530,
50,c,138,2,34,c,1,0.9366823000018485,None,,,,,34,2,138,2,,,,,393.02160089998506,,393.0077656999929,393.02160089998506,394.02157319994876,394.02157319994876,394.02157319994876,394.02157319994876,394.02157319994876,395.0211181999766,395.0211181999766,395.97208929999033,c,1,0.9366823000018485,None,,,,,,,,,,,,,,,02,001,2025-10-03_14h53.18.482,motorselection,,2025.1.1,60.01720092102189,2025-10-03 14h53.46.410391 +0530,
-150,z,139,3,34,z,1,0.7918621999560855,None,,,,,34,3,139,3,,,,,395.9876486999565,,395.9729840999935,395.9876486999565,396.9875179999508,396.9875179999508,396.9875179999508,396.9875179999508,396.9875179999508,397.98724259994924,397.98724259994924,398.78842929995153,z,1,0.7918621999560855,None,,,,,,,,,,,,,,,02,001,2025-10-03_14h53.18.482,motorselection,,2025.1.1,60.01720092102189,2025-10-03 14h53.46.410391 +0530,
-50,x,140,0,35,x,1,0.702571599977091,None,,,,,35,0,140,0,,,,,398.80377119994955,,398.7893533000024,398.80377119994955,399.80380949995015,399.80380949995015,399.80380949995015,399.80380949995015,399.80380949995015,400.7875175999943,400.7875175999943,401.50550579995615,x,1,0.702571599977091,None,,,,,,,,,,,,,,,02,001,2025-10-03_14h53.18.482,motorselection,,2025.1.1,60.01720092102189,2025-10-03 14h53.46.410391 +0530,
150,v,141,1,35,v,1,0.8176584000466391,None,,,,,35,1,141,1,,,,,401.5207394999452,,401.50676530000055,401.5207394999452,402.520759099978,402.520759099978,402.520759099978,402.520759099978,402.520759099978,403.52004669996677,403.52004669996677,404.3544656999875,v,1,0.8176584000466391,None,,,,,,,,,,,,,,,02,001,2025-10-03_14h53.18.482,motorselection,,2025.1.1,60.01720092102189,2025-10-03 14h53.46.410391 +0530,
50,c,142,2,35,c,1,0.5842850999906659,None,,,,,35,2,142,2,,,,,404.3701759999967,,404.3553907999885,404.3701759999967,405.35366239998257,405.35366239998257,405.35366239998257,405.35366239998257,405.3704352999921,406.3699471,406.3699471,406.9702324999962,c,1,0.5842850999906659,None,,,,,,,,,,,,,,,02,001,2025-10-03_14h53.18.482,motorselection,,2025.1.1,60.01720092102189,2025-10-03 14h53.46.410391 +0530,
-150,z,143,3,35,z,1,0.6010882999980822,None,,,,,35,3,143,3,,,,,406.9863557999488,,406.9706981999916,406.9863557999488,407.9697553999722,407.9697553999722,407.9697553999722,407.9697553999722,407.9864211999811,408.9697023999761,408.9697023999761,409.58735849999357,z,1,0.6010882999980822,None,,,,,,,,,,,,,,,02,001,2025-10-03_14h53.18.482,motorselection,,2025.1.1,60.01720092102189,2025-10-03 14h53.46.410391 +0530,
-50,x,144,0,36,x,1,0.627202200004831,None,,,,,36,0,144,0,,,,,409.6027070999844,,409.58829069999047,409.6027070999844,410.60306939994916,410.60306939994916,410.60306939994916,410.60306939994916,410.60306939994916,411.60262059996603,411.60262059996603,412.23800889996346,x,1,0.627202200004831,None,,,,,,,,,,,,,,,02,001,2025-10-03_14h53.18.482,motorselection,,2025.1.1,60.01720092102189,2025-10-03 14h53.46.410391 +0530,
150,v,145,1,36,v,1,0.5366368000395596,None,,,,,36,1,145,1,,,,,412.25323859998025,,412.239300599962,412.25323859998025,413.25305469997693,413.25305469997693,413.25305469997693,413.25305469997693,413.25305469997693,414.25223859999096,414.25223859999096,414.80280749994563,v,1,0.5366368000395596,None,,,,,,,,,,,,,,,02,001,2025-10-03_14h53.18.482,motorselection,,2025.1.1,60.01720092102189,2025-10-03 14h53.46.410391 +0530,
50,c,146,2,36,c,1,0.8119356000097468,None,,,,,36,2,146,2,,,,,414.8187970999861,,414.80326409998816,414.8187970999861,415.80255799996667,415.80255799996667,415.80255799996667,415.80255799996667,415.81937529996503,416.80265269998927,416.80265269998927,417.6199309999938,c,1,0.8119356000097468,None,,,,,,,,,,,,,,,02,001,2025-10-03_14h53.18.482,motorselection,,2025.1.1,60.01720092102189,2025-10-03 14h53.46.410391 +0530,
-150,z,147,3,36,z,1,0.5384889999986626,None,,,,,36,3,147,3,,,,,417.63544179999735,,417.62090159999207,417.63544179999735,418.6358457999886,418.6358457999886,418.6358457999886,418.6358457999886,418.6358457999886,419.6359620000003,419.6359620000003,420.1862471999484,z,1,0.5384889999986626,None,,,,,,,,,,,,,,,02,001,2025-10-03_14h53.18.482,motorselection,,2025.1.1,60.01720092102189,2025-10-03 14h53.46.410391 +0530,
-50,x,148,0,37,x,1,0.5555549999698997,None,,,,,37,0,148,0,,,,,420.2018879999523,,420.18702199996915,420.2018879999523,421.18547019996913,421.18547019996913,421.18547019996913,421.18547019996913,421.20179239998106,422.20201179996366,422.20201179996366,422.7684738999815,x,1,0.5555549999698997,None,,,,,,,,,,,,,,,02,001,2025-10-03_14h53.18.482,motorselection,,2025.1.1,60.01720092102189,2025-10-03 14h53.46.410391 +0530,
150,v,149,1,37,v,1,0.5292430999688804,None,,,,,37,1,149,1,,,,,422.7847256999812,,422.7687653999892,422.7847256999812,423.76824239996495,423.76824239996495,423.76824239996495,423.76824239996495,423.7852459999849,424.76848199998494,424.76848199998494,425.3024370999774,v,1,0.5292430999688804,None,,,,,,,,,,,,,,,02,001,2025-10-03_14h53.18.482,motorselection,,2025.1.1,60.01720092102189,2025-10-03 14h53.46.410391 +0530,
50,c,150,2,37,c,1,0.9565543999779038,None,,,,,37,2,150,2,,,,,425.3180162999779,,425.30334269994637,425.3180162999779,426.3179688999662,426.3179688999662,426.3179688999662,426.3179688999662,426.3179688999662,427.3175709999632,427.3175709999632,428.28466869995464,c,1,0.9565543999779038,None,,,,,,,,,,,,,,,02,001,2025-10-03_14h53.18.482,motorselection,,2025.1.1,60.01720092102189,2025-10-03 14h53.46.410391 +0530,
-150,z,151,3,37,z,1,0.5247039999812841,None,,,,,37,3,151,3,,,,,428.3012618999928,,428.2851981999702,428.3012618999928,429.2845883999835,429.2845883999835,429.2845883999835,429.2845883999835,429.30135679995874,430.28421669994714,430.28421669994714,430.81937399995513,z,1,0.5247039999812841,None,,,,,,,,,,,,,,,02,001,2025-10-03_14h53.18.482,motorselection,,2025.1.1,60.01720092102189,2025-10-03 14h53.46.410391 +0530,
-50,x,152,0,38,x,1,0.5367920999997295,None,,,,,38,0,152,0,,,,,430.83417929999996,,430.82064279995393,430.83417929999996,431.83364009996876,431.83364009996876,431.83364009996876,431.83364009996876,431.83364009996876,432.83357550000073,432.83357550000073,433.38397399999667,x,1,0.5367920999997295,None,,,,,,,,,,,,,,,02,001,2025-10-03_14h53.18.482,motorselection,,2025.1.1,60.01720092102189,2025-10-03 14h53.46.410391 +0530,
150,v,153,1,38,v,1,0.5898336000391282,None,,,,,38,1,153,1,,,,,433.39999569999054,,433.3844763999805,433.39999569999054,434.38323279999895,434.38323279999895,434.38323279999895,434.38323279999895,434.39992060000077,435.38314969994826,435.38314969994826,435.98395599995274,v,1,0.5898336000391282,None,,,,,,,,,,,,,,,02,001,2025-10-03_14h53.18.482,motorselection,,2025.1.1,60.01720092102189,2025-10-03 14h53.46.410391 +0530,
50,c,154,2,38,c,1,0.5996843999600969,None,,,,,38,2,154,2,,,,,436.0002051999909,,435.98425429995405,436.0002051999909,436.98359429999255,436.98359429999255,436.98359429999255,436.98359429999255,436.99996029998874,437.98329289996764,437.98329289996764,438.58418319997145,c,1,0.5996843999600969,None,,,,,,,,,,,,,,,02,001,2025-10-03_14h53.18.482,motorselection,,2025.1.1,60.01720092102189,2025-10-03 14h53.46.410391 +0530,
-150,z,155,3,38,z,1,0.5472326999879442,None,,,,,38,3,155,3,,,,,438.59998619998805,,438.58489939995343,438.59998619998805,439.58362099999795,439.58362099999795,439.58362099999795,439.58362099999795,439.5998571999953,440.58341789996484,440.58341789996484,441.1338313999586,z,1,0.5472326999879442,None,,,,,,,,,,,,,,,02,001,2025-10-03_14h53.18.482,motorselection,,2025.1.1,60.01720092102189,2025-10-03 14h53.46.410391 +0530,
-50,x,156,0,39,x,1,0.48132219997933134,None,,,,,39,0,156,0,,,,,441.14965519995894,,441.13440329994773,441.14965519995894,442.1334610999911,442.1334610999911,442.1334610999911,442.1334610999911,442.1500697999727,443.13334429997485,443.13334429997485,443.6177959999768,x,1,0.48132219997933134,None,,,,,,,,,,,,,,,02,001,2025-10-03_14h53.18.482,motorselection,,2025.1.1,60.01720092102189,2025-10-03 14h53.46.410391 +0530,
150,v,157,1,39,v,1,0.5978653999627568,None,,,,,39,1,157,1,,,,,443.6331911999732,,443.61889309994876,443.6331911999732,444.63326259999303,444.63326259999303,444.63326259999303,444.63326259999303,444.63326259999303,445.63263589999406,445.63263589999406,446.2324187999475,v,1,0.5978653999627568,None,,,,,,,,,,,,,,,02,001,2025-10-03_14h53.18.482,motorselection,,2025.1.1,60.01720092102189,2025-10-03 14h53.46.410391 +0530,
50,c,158,2,39,c,1,1.2156267000245862,None,,,,,39,2,158,2,,,,,446.2489037999767,,446.23268849996384,446.2489037999767,447.23295369994594,447.23295369994594,447.23295369994594,447.23295369994594,447.24952919996576,448.23278939997545,448.23278939997545,449.449656999961,c,1,1.2156267000245862,None,,,,,,,,,,,,,,,02,001,2025-10-03_14h53.18.482,motorselection,,2025.1.1,60.01720092102189,2025-10-03 14h53.46.410391 +0530,
-150,z,159,3,39,z,1,0.5835363999940455,None,,,,,39,3,159,3,,,,,449.46544849994825,,449.4503765999689,449.46544849994825,450.44891489995643,450.44891489995643,450.44891489995643,450.44891489995643,450.4657844999456,451.46523299999535,451.46523299999535,452.0493242999655,z,1,0.5835363999940455,None,,,,,,,,,,,,,,,02,001,2025-10-03_14h53.18.482,motorselection,,2025.1.1,60.01720092102189,2025-10-03 14h53.46.410391 +0530,
-50,x,160,0,40,x,1,0.5936262999894097,None,,,,,40,0,160,0,,,,,452.0651726999786,,452.04983809997793,452.0651726999786,453.048793199996,453.048793199996,453.048793199996,453.048793199996,453.06478179997066,454.0483462999691,454.0483462999691,454.6487323999754,x,1,0.5936262999894097,None,,,,,,,,,,,,,,,02,001,2025-10-03_14h53.18.482,motorselection,,2025.1.1,60.01720092102189,2025-10-03 14h53.46.410391 +0530,
150,v,161,1,40,v,1,0.570016699959524,None,,,,,40,1,161,1,,,,,454.66478859999916,,454.64902879996225,454.66478859999916,455.6650191999506,455.6650191999506,455.6650191999506,455.6650191999506,455.6650191999506,456.6482304999954,456.6482304999954,457.2319279999938,v,1,0.570016699959524,None,,,,,,,,,,,,,,,02,001,2025-10-03_14h53.18.482,motorselection,,2025.1.1,60.01720092102189,2025-10-03 14h53.46.410391 +0530,
50,c,162,2,40,c,1,1.1813797999639064,None,,,,,40,2,162,2,,,,,457.2481562999892,,457.2325944999466,457.2481562999892,458.23177539999597,458.23177539999597,458.23177539999597,458.23177539999597,458.24825039994903,459.2311255999957,459.2311255999957,460.41520459996536,c,1,1.1813797999639064,None,,,,,,,,,,,,,,,02,001,2025-10-03_14h53.18.482,motorselection,,2025.1.1,60.01720092102189,2025-10-03 14h53.46.410391 +0530,
-150,z,163,3,40,z,1,0.8065107999718748,None,,,,,40,3,163,3,,,,,460.4309986999724,,460.4157806999865,460.4309986999724,461.41479609999806,461.41479609999806,461.41479609999806,461.41479609999806,461.43148499995004,462.4142878999701,462.4142878999701,463.2319017999689,z,1,0.8065107999718748,None,,,,,,,,,,,,,,,02,001,2025-10-03_14h53.18.482,motorselection,,2025.1.1,60.01720092102189,2025-10-03 14h53.46.410391 +0530,
-50,x,164,0,41,x,1,0.8105026999837719,None,,,,,41,0,164,0,,,,,463.2474646999617,,463.23267579998355,463.2474646999617,464.23115859995596,464.23115859995596,464.23115859995596,464.23115859995596,464.24783769994974,465.2310854999814,465.2310854999814,466.0484917999711,x,1,0.8105026999837719,None,,,,,,,,,,,,,,,02,001,2025-10-03_14h53.18.482,motorselection,,2025.1.1,60.01720092102189,2025-10-03 14h53.46.410391 +0530,
150,v,165,1,41,v,1,0.6179621000192128,None,,,,,41,1,165,1,,,,,466.0639069000026,,466.0492764999508,466.0639069000026,467.06367529998533,467.06367529998533,467.06367529998533,467.06367529998533,467.06367529998533,468.064047199965,468.064047199965,468.6980513999588,v,1,0.6179621000192128,None,,,,,,,,,,,,,,,02,001,2025-10-03_14h53.18.482,motorselection,,2025.1.1,60.01720092102189,2025-10-03 14h53.46.410391 +0530,
50,c,166,2,41,c,1,0.6781490999856032,None,,,,,41,2,166,2,,,,,468.7138486999902,,468.6988489999785,468.7138486999902,469.71351739997044,469.71351739997044,469.71351739997044,469.71351739997044,469.71351739997044,470.6971985999844,470.6971985999844,471.38068669999484,c,1,0.6781490999856032,None,,,,,,,,,,,,,,,02,001,2025-10-03_14h53.18.482,motorselection,,2025.1.1,60.01720092102189,2025-10-03 14h53.46.410391 +0530,
-150,z,167,3,41,z,1,0.5642715999856591,None,,,,,41,3,167,3,,,,,471.3964377999655,,471.3813306999509,471.3964377999655,472.38019279995933,472.38019279995933,472.38019279995933,472.38019279995933,472.39654559997143,473.38028299994767,473.38028299994767,473.94803489994956,z,1,0.5642715999856591,None,,,,,,,,,,,,,,,02,001,2025-10-03_14h53.18.482,motorselection,,2025.1.1,60.01720092102189,2025-10-03 14h53.46.410391 +0530,
-50,x,168,0,42,x,1,0.6106242000241764,None,,,,,42,0,168,0,,,,,473.96312099997886,,473.94933839997975,473.96312099997886,474.9634152999497,474.9634152999497,474.9634152999497,474.9634152999497,474.9634152999497,475.96329459996196,475.96329459996196,476.58165159996133,x,1,0.6106242000241764,None,,,,,,,,,,,,,,,02,001,2025-10-03_14h53.18.482,motorselection,,2025.1.1,60.01720092102189,2025-10-03 14h53.46.410391 +0530,
150,v,169,1,42,v,1,0.6541735000209883,None,,,,,42,1,169,1,,,,,476.59664659999544,,476.58313299994916,476.59664659999544,477.5964971999638,477.5964971999638,477.5964971999638,477.5964971999638,477.5964971999638,478.5963395999861,478.5963395999861,479.26454699999886,v,1,0.6541735000209883,None,,,,,,,,,,,,,,,02,001,2025-10-03_14h53.18.482,motorselection,,2025.1.1,60.01720092102189,2025-10-03 14h53.46.410391 +0530,
50,c,170,2,42,c,1,0.8457827999955043,None,,,,,42,2,170,2,,,,,479.27961749996757,,479.26580179994926,479.27961749996757,480.27958909998415,480.27958909998415,480.27958909998415,480.27958909998415,480.27958909998415,481.27950039994903,481.27950039994903,482.1307612999808,c,1,0.8457827999955043,None,,,,,,,,,,,,,,,02,001,2025-10-03_14h53.18.482,motorselection,,2025.1.1,60.01720092102189,2025-10-03 14h53.46.410391 +0530,
-150,z,171,3,42,z,1,0.5484598000184633,None,,,,,42,3,171,3,,,,,482.1460603000014,,482.13211869995575,482.1460603000014,483.1459539999487,483.1459539999487,483.1459539999487,483.1459539999487,483.1459539999487,484.14525189995766,484.14525189995766,484.69653560000006,z,1,0.5484598000184633,None,,,,,,,,,,,,,,,02,001,2025-10-03_14h53.18.482,motorselection,,2025.1.1,60.01720092102189,2025-10-03 14h53.46.410391 +0530,
-50,x,172,0,43,x,1,0.5537101000081748,None,,,,,43,0,172,0,,,,,484.7121374999988,,484.6973375999951,484.7121374999988,485.6957499999553,485.6957499999553,485.6957499999553,485.6957499999553,485.71237919997657,486.71181289997185,486.71181289997185,487.2804316999973,x,1,0.5537101000081748,None,,,,,,,,,,,,,,,02,001,2025-10-03_14h53.18.482,motorselection,,2025.1.1,60.01720092102189,2025-10-03 14h53.46.410391 +0530,
150,v,173,1,43,v,1,0.7423630999983288,None,,,,,43,1,173,1,,,,,487.29549769998994,,487.2819307000027,487.29549769998994,488.295464899973,488.295464899973,488.295464899973,488.295464899973,488.295464899973,489.2949823999661,489.2949823999661,490.04578980000224,v,1,0.7423630999983288,None,,,,,,,,,,,,,,,02,001,2025-10-03_14h53.18.482,motorselection,,2025.1.1,60.01720092102189,2025-10-03 14h53.46.410391 +0530,
50,c,174,2,43,c,1,0.5993081999476999,None,,,,,43,2,174,2,,,,,490.0615151999518,,490.04659029998584,490.0615151999518,491.04524700000184,491.04524700000184,491.04524700000184,491.04524700000184,491.06177439994644,492.06142250000266,492.06142250000266,492.6633060000022,c,1,0.5993081999476999,None,,,,,,,,,,,,,,,02,001,2025-10-03_14h53.18.482,motorselection,,2025.1.1,60.01720092102189,2025-10-03 14h53.46.410391 +0530,
-150,z,175,3,43,z,1,0.49651709996396676,None,,,,,43,3,175,3,,,,,492.6783759999671,,492.66466879996005,492.6783759999671,493.6775622999994,493.6775622999994,493.6775622999994,493.6775622999994,493.6775622999994,494.67768969997996,494.67768969997996,495.17933829996036,z,1,0.49651709996396676,None,,,,,,,,,,,,,,,02,001,2025-10-03_14h53.18.482,motorselection,,2025.1.1,60.01720092102189,2025-10-03 14h53.46.410391 +0530,
-50,x,176,0,44,x,1,0.623302899999544,None,,,,,44,0,176,0,,,,,495.194718899962,,495.180226699973,495.194718899962,496.19452759996057,496.19452759996057,496.19452759996057,496.19452759996057,496.19452759996057,497.19431419996545,497.19431419996545,497.8276504999958,x,1,0.623302899999544,None,,,,,,,,,,,,,,,02,001,2025-10-03_14h53.18.482,motorselection,,2025.1.1,60.01720092102189,2025-10-03 14h53.46.410391 +0530,
150,v,177,1,44,v,1,0.47139489999972284,None,,,,,44,1,177,1,,,,,497.84360909997486,,497.8282796999556,497.84360909997486,498.8273785999627,498.8273785999627,498.8273785999627,498.8273785999627,498.84401059994707,499.8274251999683,499.8274251999683,500.3125633999589,v,1,0.47139489999972284,None,,,,,,,,,,,,,,,02,001,2025-10-03_14h53.18.482,motorselection,,2025.1.1,60.01720092102189,2025-10-03 14h53.46.410391 +0530,
50,c,178,2,44,c,1,1.3649742000270635,None,,,,,44,2,178,2,,,,,500.3275660999934,,500.3139245999628,500.3275660999934,501.3274458999513,501.3274458999513,501.3274458999513,501.3274458999513,501.3274458999513,502.3272703999537,502.3272703999537,503.6954446999589,c,1,1.3649742000270635,None,,,,,,,,,,,,,,,02,001,2025-10-03_14h53.18.482,motorselection,,2025.1.1,60.01720092102189,2025-10-03 14h53.46.410391 +0530,
-150,z,179,3,44,z,1,0.47434199997223914,None,,,,,44,3,179,3,,,,,503.7101625999785,,503.69686519994866,503.7101625999785,504.7094997999957,504.7094997999957,504.7094997999957,504.7094997999957,504.7094997999957,505.7093900999753,505.7093900999753,506.1932115999516,z,1,0.47434199997223914,None,,,,,,,,,,,,,,,02,001,2025-10-03_14h53.18.482,motorselection,,2025.1.1,60.01720092102189,2025-10-03 14h53.46.410391 +0530,
-50,x,180,0,45,x,1,0.4803558000130579,None,,,,,45,0,180,0,,,,,506.21015449997503,,506.1934757999843,506.21015449997503,507.19261259998893,507.19261259998893,507.19261259998893,507.19261259998893,507.2093944999506,508.1925238999538,508.1925238999538,508.67652909999015,x,1,0.4803558000130579,None,,,,,,,,,,,,,,,02,001,2025-10-03_14h53.18.482,motorselection,,2025.1.1,60.01720092102189,2025-10-03 14h53.46.410391 +0530,
150,v,181,1,45,v,1,0.49815870000747964,None,,,,,45,1,181,1,,,,,508.69307209999533,,508.6768657999928,508.69307209999533,509.67566469998565,509.67566469998565,509.67566469998565,509.67566469998565,509.6924977999879,510.6764484999585,510.6764484999585,511.1775037999614,v,1,0.49815870000747964,None,,,,,,,,,,,,,,,02,001,2025-10-03_14h53.18.482,motorselection,,2025.1.1,60.01720092102189,2025-10-03 14h53.46.410391 +0530,
50,c,182,2,45,c,1,0.46183829999063164,None,,,,,45,2,182,2,,,,,511.1930219999631,,511.17849019996356,511.1930219999631,512.1929414999904,512.1929414999904,512.1929414999904,512.1929414999904,512.1929414999904,513.1928674999508,513.1928674999508,513.659386299958,c,1,0.46183829999063164,None,,,,,,,,,,,,,,,02,001,2025-10-03_14h53.18.482,motorselection,,2025.1.1,60.01720092102189,2025-10-03 14h53.46.410391 +0530,
-150,z,183,3,45,z,1,0.5767980999662541,None,,,,,45,3,183,3,,,,,513.6753206999856,,513.6596597999451,513.6753206999856,514.6588634999935,514.6588634999935,514.6588634999935,514.6588634999935,514.6754641999723,515.6589252999984,515.6589252999984,516.2433582999511,z,1,0.5767980999662541,None,,,,,,,,,,,,,,,02,001,2025-10-03_14h53.18.482,motorselection,,2025.1.1,60.01720092102189,2025-10-03 14h53.46.410391 +0530,
-50,x,184,0,46,x,1,0.6024942999938503,None,,,,,46,0,184,0,,,,,516.2589517000015,,516.244249099982,516.2589517000015,517.2425701000029,517.2425701000029,517.2425701000029,517.2425701000029,517.2592004999751,518.2590621999698,518.2590621999698,518.8763164999546,x,1,0.6024942999938503,None,,,,,,,,,,,,,,,02,001,2025-10-03_14h53.18.482,motorselection,,2025.1.1,60.01720092102189,2025-10-03 14h53.46.410391 +0530,
150,v,185,1,46,v,1,0.7018019999959506,None,,,,,46,1,185,1,,,,,518.8919344999595,,518.8770949000027,518.8919344999595,519.8916419000016,519.8916419000016,519.8916419000016,519.8916419000016,519.8916419000016,520.8917611999786,520.8917611999786,521.6087037999532,v,1,0.7018019999959506,None,,,,,,,,,,,,,,,02,001,2025-10-03_14h53.18.482,motorselection,,2025.1.1,60.01720092102189,2025-10-03 14h53.46.410391 +0530,
50,c,186,2,46,c,1,0.7022998000029474,None,,,,,46,2,186,2,,,,,521.6248500999645,,521.6089695999981,521.6248500999645,522.6083213999518,522.6083213999518,522.6083213999518,522.6083213999518,522.6249696000014,523.6084901999566,523.6084901999566,524.3257108999533,c,1,0.7022998000029474,None,,,,,,,,,,,,,,,02,001,2025-10-03_14h53.18.482,motorselection,,2025.1.1,60.01720092102189,2025-10-03 14h53.46.410391 +0530,
-150,z,187,3,46,z,1,0.5960854000295512,None,,,,,46,3,187,3,,,,,524.3414201999549,,524.3267350999522,524.3414201999549,525.3250541999587,525.3250541999587,525.3250541999587,525.3250541999587,525.3412915999652,526.3413475999841,526.3413475999841,526.9419925999828,z,1,0.5960854000295512,None,,,,,,,,,,,,,,,02,001,2025-10-03_14h53.18.482,motorselection,,2025.1.1,60.01720092102189,2025-10-03 14h53.46.410391 +0530,
-50,x,188,0,47,x,1,0.5824896999984048,None,,,,,47,0,188,0,,,,,526.9577907999628,,526.9426929999609,526.9577907999628,527.94140099996,527.94140099996,527.94140099996,527.94140099996,527.957794499991,528.9576711999835,528.9576711999835,529.5426453999826,x,1,0.5824896999984048,None,,,,,,,,,,,,,,,02,001,2025-10-03_14h53.18.482,motorselection,,2025.1.1,60.01720092102189,2025-10-03 14h53.46.410391 +0530,
150,v,189,1,47,v,1,0.4420216000289656,None,,,,,47,1,189,1,,,,,529.5580190999899,,529.5438807999599,529.5580190999899,530.5578774999594,530.5578774999594,530.5578774999594,530.5578774999594,530.5578774999594,531.5573299999814,531.5573299999814,532.0091570999939,v,1,0.4420216000289656,None,,,,,,,,,,,,,,,02,001,2025-10-03_14h53.18.482,motorselection,,2025.1.1,60.01720092102189,2025-10-03 14h53.46.410391 +0530,
50,c,190,2,47,c,1,0.8377002000343055,None,,,,,47,2,190,2,,,,,532.0242388999905,,532.0104362999555,532.0242388999905,533.0243060999783,533.0243060999783,533.0243060999783,533.0243060999783,533.0243060999783,534.0235329999705,534.0235329999705,534.8750646999688,c,1,0.8377002000343055,None,,,,,,,,,,,,,,,02,001,2025-10-03_14h53.18.482,motorselection,,2025.1.1,60.01720092102189,2025-10-03 14h53.46.410391 +0530,
-150,z,191,3,47,z,1,0.5316579999634996,None,,,,,47,3,191,3,,,,,534.8904196999501,,534.8758551999927,534.8904196999501,535.890631199989,535.890631199989,535.890631199989,535.890631199989,535.890631199989,536.8899645999772,536.8899645999772,537.4243471999653,z,1,0.5316579999634996,None,,,,,,,,,,,,,,,02,001,2025-10-03_14h53.18.482,motorselection,,2025.1.1,60.01720092102189,2025-10-03 14h53.46.410391 +0530,
-50,x,192,0,48,x,1,0.6010027999873273,None,,,,,48,0,192,0,,,,,537.4399628999527,,537.4250731999637,537.4399628999527,538.4233393999748,538.4233393999748,538.4233393999748,538.4233393999748,538.4400633999612,539.4233086999739,539.4233086999739,540.0411230999744,x,1,0.6010027999873273,None,,,,,,,,,,,,,,,02,001,2025-10-03_14h53.18.482,motorselection,,2025.1.1,60.01720092102189,2025-10-03 14h53.46.410391 +0530,
150,v,193,1,48,v,1,1.3635801000054926,None,,,,,48,1,193,1,,,,,540.0565481999656,,540.0423188999994,540.0565481999656,541.0568286999478,541.0568286999478,541.0568286999478,541.0568286999478,541.0568286999478,542.056126499956,542.056126499956,543.4235073999735,v,1,1.3635801000054926,None,,,,,,,,,,,,,,,02,001,2025-10-03_14h53.18.482,motorselection,,2025.1.1,60.01720092102189,2025-10-03 14h53.46.410391 +0530,
50,c,194,2,48,c,1,0.6298963999724947,None,,,,,48,2,194,2,,,,,543.4394766999758,,543.4242851999588,543.4394766999758,544.4229327999637,544.4229327999637,544.4229327999637,544.4229327999637,544.4396928999922,545.439168199955,545.439168199955,546.0729639999918,c,1,0.6298963999724947,None,,,,,,,,,,,,,,,02,001,2025-10-03_14h53.18.482,motorselection,,2025.1.1,60.01720092102189,2025-10-03 14h53.46.410391 +0530,
-150,z,195,3,48,z,1,0.41392500000074506,None,,,,,48,3,195,3,,,,,546.0890227999771,,546.0733698999975,546.0890227999771,547.0728721999913,547.0728721999913,547.0728721999913,547.0728721999913,547.0894638999598,548.0728062999551,548.0728062999551,548.4894214999513,z,1,0.41392500000074506,None,,,,,,,,,,,,,,,02,001,2025-10-03_14h53.18.482,motorselection,,2025.1.1,60.01720092102189,2025-10-03 14h53.46.410391 +0530,
-50,x,196,0,49,x,1,0.6151354999747127,None,,,,,49,0,196,0,,,,,548.5054692999693,,548.4899868999491,548.5054692999693,549.4893159999629,549.4893159999629,549.4893159999629,549.4893159999629,549.5060544000007,550.4885639999993,550.4885639999993,551.1055045999819,x,1,0.6151354999747127,None,,,,,,,,,,,,,,,02,001,2025-10-03_14h53.18.482,motorselection,,2025.1.1,60.01720092102189,2025-10-03 14h53.46.410391 +0530,
150,v,197,1,49,v,1,0.5431025000289083,None,,,,,49,1,197,1,,,,,551.121537799947,,551.1060552999843,551.121537799947,552.105232199945,552.105232199945,552.105232199945,552.105232199945,552.121967199957,553.105661199952,553.105661199952,553.6557169999578,v,1,0.5431025000289083,None,,,,,,,,,,,,,,,02,001,2025-10-03_14h53.18.482,motorselection,,2025.1.1,60.01720092102189,2025-10-03 14h53.46.410391 +0530,
50,c,198,2,49,c,1,1.0383824000018649,None,,,,,49,2,198,2,,,,,553.6713556999457,,553.6564938999945,553.6713556999457,554.6553965999628,554.6553965999628,554.6553965999628,554.6553965999628,554.6721552999807,555.6552851999877,555.6552851999877,556.7065175999887,c,1,1.0383824000018649,None,,,,,,,,,,,,,,,02,001,2025-10-03_14h53.18.482,motorselection,,2025.1.1,60.01720092102189,2025-10-03 14h53.46.410391 +0530,
-150,z,199,3,49,z,1,0.6499672000063583,None,,,,,49,3,199,3,,,,,556.7217812999734,,556.70775089995,556.7217812999734,557.721813799988,557.721813799988,557.721813799988,557.721813799988,557.721813799988,558.7211622999748,558.7211622999748,559.372846299957,z,1,0.6499672000063583,None,,,,,,,,,,,,,,,02,001,2025-10-03_14h53.18.482,motorselection,,2025.1.1,60.01720092102189,2025-10-03 14h53.46.410391 +0530,
150,v,0,0,0,,,,,v,1,0.7125878999941051,None,,,,,0,0,0,1,559.4164166999981,,,,,,,,,,,,,,,,559.4109428999946,559.4164166999981,560.3947716999683,560.3947716999683,560.3947716999683,560.3947716999683,560.4209929999779,561.388283999986,561.388283999986,562.1042202999815,v,1,0.7125878999941051,None,02,001,2025-10-03_14h53.18.482,motorselection,,2025.1.1,60.01720092102189,2025-10-03 14h53.46.410391 +0530,
150,v,1,1,1,,,,,v,1,0.5029497999930754,None,,,,,1,1,1,1,562.1206002999679,,,,,,,,,,,,,,,,562.1045120999916,562.1206002999679,563.1036706999876,563.1036706999876,563.1036706999876,563.1036706999876,563.1204830999486,564.1035691999714,564.1035691999714,564.6213623999502,v,1,0.5029497999930754,None,02,001,2025-10-03_14h53.18.482,motorselection,,2025.1.1,60.01720092102189,2025-10-03 14h53.46.410391 +0530,
-50,x,2,2,0,,,,,x,1,0.9931305999634787,None,,,,,0,2,2,0,564.6369460999849,,,,,,,,,,,,,,,,564.6218304999638,564.6369460999849,565.6203503999859,565.6203503999859,565.6203503999859,565.6203503999859,565.6368348999531,566.6370247000013,566.6370247000013,567.6383174999501,x,1,0.9931305999634787,None,02,001,2025-10-03_14h53.18.482,motorselection,,2025.1.1,60.01720092102189,2025-10-03 14h53.46.410391 +0530,
50,c,3,3,0,,,,,c,1,0.5255247000022791,None,,,,,0,3,3,2,567.6536409999826,,,,,,,,,,,,,,,,567.639272899949,567.6536409999826,568.6534104999737,568.6534104999737,568.6534104999737,568.6534104999737,568.6534104999737,569.6529959999607,569.6529959999607,570.1883378999773,c,1,0.5255247000022791,None,02,001,2025-10-03_14h53.18.482,motorselection,,2025.1.1,60.01720092102189,2025-10-03 14h53.46.410391 +0530,
50,c,4,4,1,,,,,c,1,0.45214400003897026,None,,,,,1,4,4,2,570.2035712999641,,,,,,,,,,,,,,,,570.1895662999596,570.2035712999641,571.2036691999529,571.2036691999529,571.2036691999529,571.2036691999529,571.2036691999529,572.2036866999697,572.2036866999697,572.6720165999723,c,1,0.45214400003897026,None,02,001,2025-10-03_14h53.18.482,motorselection,,2025.1.1,60.01720092102189,2025-10-03 14h53.46.410391 +0530,
-50,x,5,5,1,,,,,x,1,0.7834167000255547,None,,,,,1,5,5,0,572.6869721999974,,,,,,,,,,,,,,,,572.6733507999452,572.6869721999974,573.6868912999635,573.6868912999635,573.6868912999635,573.6868912999635,573.6868912999635,574.6867419999908,574.6867419999908,575.4866681999993,x,1,0.7834167000255547,None,02,001,2025-10-03_14h53.18.482,motorselection,,2025.1.1,60.01720092102189,2025-10-03 14h53.46.410391 +0530,
50,c,6,6,2,,,,,c,1,0.5583765000337735,None,,,,,2,6,6,2,575.5027560999733,,,,,,,,,,,,,,,,575.4873492999468,575.5027560999733,576.4865867999615,576.4865867999615,576.4865867999615,576.4865867999615,576.5031360999565,577.4865142999915,577.4865142999915,578.05367319996,c,1,0.5583765000337735,None,02,001,2025-10-03_14h53.18.482,motorselection,,2025.1.1,60.01720092102189,2025-10-03 14h53.46.410391 +0530,
50,c,7,7,3,,,,,c,1,0.6344514000229537,None,,,,,3,7,7,2,578.0693264000001,,,,,,,,,,,,,,,,578.0544843999669,578.0693264000001,579.0531767999637,579.0531767999637,579.0531767999637,579.0531767999637,579.0691579999984,580.0691554999794,580.0691554999794,580.7207885999815,c,1,0.6344514000229537,None,02,001,2025-10-03_14h53.18.482,motorselection,,2025.1.1,60.01720092102189,2025-10-03 14h53.46.410391 +0530,
50,c,8,8,4,,,,,c,1,0.8819878000067547,None,,,,,4,8,8,2,580.7361358999624,,,,,,,,,,,,,,,,580.7221065999474,580.7361358999624,581.735675999953,581.735675999953,581.735675999953,581.735675999953,581.735675999953,582.7356205999968,582.7356205999968,583.6194359999499,c,1,0.8819878000067547,None,02,001,2025-10-03_14h53.18.482,motorselection,,2025.1.1,60.01720092102189,2025-10-03 14h53.46.410391 +0530,
50,c,9,9,5,,,,,c,1,1.045057800016366,None,,,,,5,9,9,2,583.6353068999597,,,,,,,,,,,,,,,,583.6200396999484,583.6353068999597,584.6190904999967,584.6190904999967,584.6190904999967,584.6190904999967,584.635782599973,585.6188675999874,585.6188675999874,586.6692067999975,c,1,1.045057800016366,None,02,001,2025-10-03_14h53.18.482,motorselection,,2025.1.1,60.01720092102189,2025-10-03 14h53.46.410391 +0530,
-150,z,10,10,0,,,,,z,1,0.5950688000302762,None,,,,,0,10,10,3,586.6849949999596,,,,,,,,,,,,,,,,586.6699122999562,586.6849949999596,587.6686010999838,587.6686010999838,587.6686010999838,587.6686010999838,587.6853651999845,588.6848038999597,588.6848038999597,589.2856278999825,z,1,0.5950688000302762,None,02,001,2025-10-03_14h53.18.482,motorselection,,2025.1.1,60.01720092102189,2025-10-03 14h53.46.410391 +0530,
150,v,11,11,2,,,,,v,1,0.6444035000167787,None,,,,,2,11,11,1,589.3014547999483,,,,,,,,,,,,,,,,589.2863784999936,589.3014547999483,590.2851880999515,590.2851880999515,590.2851880999515,590.2851880999515,590.3018060999457,591.3013857999467,591.3013857999467,591.9522559999605,v,1,0.6444035000167787,None,02,001,2025-10-03_14h53.18.482,motorselection,,2025.1.1,60.01720092102189,2025-10-03 14h53.46.410391 +0530,
-150,z,12,12,1,,,,,z,1,0.642746299970895,None,,,,,1,12,12,3,591.9679156999919,,,,,,,,,,,,,,,,591.953085599991,591.9679156999919,592.9516546999803,592.9516546999803,592.9516546999803,592.9516546999803,592.9683110999758,593.9514295999543,593.9514295999543,594.6031827999977,z,1,0.642746299970895,None,02,001,2025-10-03_14h53.18.482,motorselection,,2025.1.1,60.01720092102189,2025-10-03 14h53.46.410391 +0530,
50,c,13,13,6,,,,,c,1,0.6039493999560364,None,,,,,6,13,13,2,594.6181029999861,,,,,,,,,,,,,,,,594.6046321999747,594.6181029999861,595.6180176999769,595.6180176999769,595.6180176999769,595.6180176999769,595.6180176999769,596.6176995999995,596.6176995999995,597.235142999969,c,1,0.6039493999560364,None,02,001,2025-10-03_14h53.18.482,motorselection,,2025.1.1,60.01720092102189,2025-10-03 14h53.46.410391 +0530,
-50,x,14,14,2,,,,,x,1,0.6340138000086881,None,,,,,2,14,14,0,597.2508070999756,,,,,,,,,,,,,,,,597.236036999966,597.2508070999756,598.2343478999683,598.2343478999683,598.2343478999683,598.2343478999683,598.2510528999846,599.2505158999702,599.2505158999702,599.901344999962,x,1,0.6340138000086881,None,02,001,2025-10-03_14h53.18.482,motorselection,,2025.1.1,60.01720092102189,2025-10-03 14h53.46.410391 +0530,
50,c,15,15,7,,,,,c,1,0.4797745000105351,None,,,,,7,15,15,2,599.9173562999931,,,,,,,,,,,,,,,,599.9022851999616,599.9173562999931,600.9007006999454,600.9007006999454,600.9007006999454,600.9007006999454,600.9170295999502,601.9007757999934,601.9007757999934,602.385149299982,c,1,0.4797745000105351,None,02,001,2025-10-03_14h53.18.482,motorselection,,2025.1.1,60.01720092102189,2025-10-03 14h53.46.410391 +0530,
-50,x,16,16,3,,,,,x,1,0.46917779999785125,None,,,,,3,16,16,0,602.4002770999796,,,,,,,,,,,,,,,,602.3860596999875,602.4002770999796,603.4005094000022,603.4005094000022,603.4005094000022,603.4005094000022,603.4005094000022,604.400101199979,604.400101199979,604.8845982999774,x,1,0.46917779999785125,None,02,001,2025-10-03_14h53.18.482,motorselection,,2025.1.1,60.01720092102189,2025-10-03 14h53.46.410391 +0530,
-150,z,17,17,2,,,,,z,1,0.5123100000200793,None,,,,,2,17,17,3,604.9000473999768,,,,,,,,,,,,,,,,604.8855417000013,604.9000473999768,605.9003010999877,605.9003010999877,605.9003010999877,605.9003010999877,605.9003010999877,606.8997220000019,606.8997220000019,607.4179436999839,z,1,0.5123100000200793,None,02,001,2025-10-03_14h53.18.482,motorselection,,2025.1.1,60.01720092102189,2025-10-03 14h53.46.410391 +0530,
50,c,18,18,8,,,,,c,1,0.49801039998419583,None,,,,,8,18,18,2,607.4333823999623,,,,,,,,,,,,,,,,607.4192709999625,607.4333823999623,608.4334268999519,608.4334268999519,608.4334268999519,608.4334268999519,608.4334268999519,609.4333129999577,609.4333129999577,609.9338341999683,c,1,0.49801039998419583,None,02,001,2025-10-03_14h53.18.482,motorselection,,2025.1.1,60.01720092102189,2025-10-03 14h53.46.410391 +0530,
-150,z,19,19,3,,,,,z,1,0.44048220000695437,None,,,,,3,19,19,3,609.949507399986,,,,,,,,,,,,,,,,609.9346858999925,609.949507399986,610.9492284999578,610.9492284999578,610.9492284999578,610.9492284999578,610.9492284999578,611.9491110999952,611.9491110999952,612.3998310999596,z,1,0.44048220000695437,None,02,001,2025-10-03_14h53.18.482,motorselection,,2025.1.1,60.01720092102189,2025-10-03 14h53.46.410391 +0530,
150,v,20,20,3,,,,,v,1,0.511536400008481,None,,,,,3,20,20,1,612.4158116999897,,,,,,,,,,,,,,,,612.4004435999668,612.4158116999897,613.3993916999898,613.3993916999898,613.3993916999898,613.3993916999898,613.41582439997,614.3994050999754,614.3994050999754,614.9157861999702,v,1,0.511536400008481,None,02,001,2025-10-03_14h53.18.482,motorselection,,2025.1.1,60.01720092102189,2025-10-03 14h53.46.410391 +0530,
-150,z,21,21,4,,,,,z,1,0.5411994999740273,None,,,,,4,21,21,3,614.9318304999615,,,,,,,,,,,,,,,,614.9162241999875,614.9318304999615,615.9150370999705,615.9150370999705,615.9150370999705,615.9150370999705,615.9317567999824,616.9150424999534,616.9150424999534,617.4654994999873,z,1,0.5411994999740273,None,02,001,2025-10-03_14h53.18.482,motorselection,,2025.1.1,60.01720092102189,2025-10-03 14h53.46.410391 +0530,
-150,z,22,22,5,,,,,z,1,0.4050175999873318,None,,,,,5,22,22,3,617.481679199962,,,,,,,,,,,,,,,,617.4659995999536,617.481679199962,618.4648552999715,618.4648552999715,618.4648552999715,618.4648552999715,618.4817818999873,619.4655362999765,619.4655362999765,619.8824994000024,z,1,0.4050175999873318,None,02,001,2025-10-03_14h53.18.482,motorselection,,2025.1.1,60.01720092102189,2025-10-03 14h53.46.410391 +0530,
-50,x,23,23,4,,,,,x,1,0.9525068999500945,None,,,,,4,23,23,0,619.8982881999691,,,,,,,,,,,,,,,,619.8830134999589,619.8982881999691,620.8822604999878,620.8822604999878,620.8822604999878,620.8822604999878,620.8988089999766,621.8819423999521,621.8819423999521,622.8497324999771,x,1,0.9525068999500945,None,02,001,2025-10-03_14h53.18.482,motorselection,,2025.1.1,60.01720092102189,2025-10-03 14h53.46.410391 +0530,
-50,x,24,24,5,,,,,x,1,0.37584210000932217,None,,,,,5,24,24,0,622.8650766999926,,,,,,,,,,,,,,,,622.8508583999937,622.8650766999926,623.8648414999479,623.8648414999479,623.8648414999479,623.8648414999479,623.8648414999479,624.8650610999903,624.8650610999903,625.2494757999666,x,1,0.37584210000932217,None,02,001,2025-10-03_14h53.18.482,motorselection,,2025.1.1,60.01720092102189,2025-10-03 14h53.46.410391 +0530,
-50,x,25,25,6,,,,,x,1,0.5420457000145689,None,,,,,6,25,25,0,625.264902099967,,,,,,,,,,,,,,,,625.2505313999718,625.264902099967,626.2649386999547,626.2649386999547,626.2649386999547,626.2649386999547,626.2649386999547,627.2646845999989,627.2646845999989,627.8156013999833,x,1,0.5420457000145689,None,02,001,2025-10-03_14h53.18.482,motorselection,,2025.1.1,60.01720092102189,2025-10-03 14h53.46.410391 +0530,
-150,z,26,26,6,,,,,z,1,0.5422490000491962,None,,,,,6,26,26,3,627.8310741999885,,,,,,,,,,,,,,,,627.8164331999724,627.8310741999885,628.8313210999477,628.8313210999477,628.8313210999477,628.8313210999477,628.8313210999477,629.8310381999472,629.8310381999472,630.3813355999882,z,1,0.5422490000491962,None,02,001,2025-10-03_14h53.18.482,motorselection,,2025.1.1,60.01720092102189,2025-10-03 14h53.46.410391 +0530,
-50,x,27,27,7,,,,,x,1,0.5090609999606386,None,,,,,7,27,27,0,630.3973897999967,,,,,,,,,,,,,,,,630.3820817999658,630.3973897999967,631.3810673999833,631.3810673999833,631.3810673999833,631.3810673999833,631.3973474999657,632.380958499969,632.380958499969,632.899426399963,x,1,0.5090609999606386,None,02,001,2025-10-03_14h53.18.482,motorselection,,2025.1.1,60.01720092102189,2025-10-03 14h53.46.410391 +0530,
150,v,28,28,4,,,,,v,1,0.7019924999913201,None,,,,,4,28,28,1,632.913741700002,,,,,,,,,,,,,,,,632.9012226999621,632.913741700002,633.9139608999831,633.9139608999831,633.9139608999831,633.9139608999831,633.9139608999831,634.9137740999577,634.9137740999577,635.6311932999524,v,1,0.7019924999913201,None,02,001,2025-10-03_14h53.18.482,motorselection,,2025.1.1,60.01720092102189,2025-10-03 14h53.46.410391 +0530,
50,c,29,29,9,,,,,c,1,0.6417419999488629,None,,,,,9,29,29,2,635.646910099953,,,,,,,,,,,,,,,,635.6320579999592,635.646910099953,636.6301736999885,636.6301736999885,636.6301736999885,636.6301736999885,636.6468656999641,637.6465182999964,637.6465182999964,638.2970014999737,c,1,0.6417419999488629,None,02,001,2025-10-03_14h53.18.482,motorselection,,2025.1.1,60.01720092102189,2025-10-03 14h53.46.410391 +0530,
-150,z,30,30,7,,,,,z,1,0.7158650000346825,None,,,,,7,30,30,3,638.313132899988,,,,,,,,,,,,,,,,638.2975242999964,638.313132899988,639.2965740999789,639.2965740999789,639.2965740999789,639.2965740999789,639.3133128999616,640.2964837999898,640.2964837999898,641.0147203999804,z,1,0.7158650000346825,None,02,001,2025-10-03_14h53.18.482,motorselection,,2025.1.1,60.01720092102189,2025-10-03 14h53.46.410391 +0530,
-150,z,31,31,8,,,,,z,1,0.48328859999310225,None,,,,,8,31,31,3,641.030002799991,,,,,,,,,,,,,,,,641.0158003999968,641.030002799991,642.0300857999828,642.0300857999828,642.0300857999828,642.0300857999828,642.0300857999828,643.0298703999724,643.0298703999724,643.5302805999527,z,1,0.48328859999310225,None,02,001,2025-10-03_14h53.18.482,motorselection,,2025.1.1,60.01720092102189,2025-10-03 14h53.46.410391 +0530,
150,v,32,32,5,,,,,v,1,0.5787205999949947,None,,,,,5,32,32,1,643.546489499975,,,,,,,,,,,,,,,,643.5313322999864,643.546489499975,644.5294847999467,644.5294847999467,644.5294847999467,644.5294847999467,644.5460092999856,645.5459020999842,645.5459020999842,646.1296075999853,v,1,0.5787205999949947,None,02,001,2025-10-03_14h53.18.482,motorselection,,2025.1.1,60.01720092102189,2025-10-03 14h53.46.410391 +0530,
50,c,33,33,10,,,,,c,1,0.5538310999982059,None,,,,,10,33,33,2,646.1456845999928,,,,,,,,,,,,,,,,646.1301010999596,646.1456845999928,647.1295482999994,647.1295482999994,647.1295482999994,647.1295482999994,647.1461620999617,648.1290320999688,648.1290320999688,648.696095799969,c,1,0.5538310999982059,None,02,001,2025-10-03_14h53.18.482,motorselection,,2025.1.1,60.01720092102189,2025-10-03 14h53.46.410391 +0530,
50,c,34,34,11,,,,,c,1,0.6182560999877751,None,,,,,11,34,34,2,648.7121457999456,,,,,,,,,,,,,,,,648.696699299966,648.7121457999456,649.695897699974,649.695897699974,649.695897699974,649.695897699974,649.7125689999666,650.6954178999877,650.6954178999877,651.3296602999908,c,1,0.6182560999877751,None,02,001,2025-10-03_14h53.18.482,motorselection,,2025.1.1,60.01720092102189,2025-10-03 14h53.46.410391 +0530,
-50,x,35,35,8,,,,,x,1,0.6945960000157356,None,,,,,8,35,35,0,651.3453257999499,,,,,,,,,,,,,,,,651.3304724999471,651.3453257999499,652.328987099987,652.328987099987,652.328987099987,652.328987099987,652.3456539999461,653.3290917999693,653.3290917999693,654.029415500001,x,1,0.6945960000157356,None,02,001,2025-10-03_14h53.18.482,motorselection,,2025.1.1,60.01720092102189,2025-10-03 14h53.46.410391 +0530,
-150,z,36,36,9,,,,,z,1,0.4695828999974765,None,,,,,9,36,36,3,654.0448242999846,,,,,,,,,,,,,,,,654.0302606999758,654.0448242999846,655.0287200000021,655.0287200000021,655.0287200000021,655.0287200000021,655.0452556999517,656.0448618999799,656.0448618999799,656.5300120999455,z,1,0.4695828999974765,None,02,001,2025-10-03_14h53.18.482,motorselection,,2025.1.1,60.01720092102189,2025-10-03 14h53.46.410391 +0530,
-50,x,37,37,9,,,,,x,1,0.5327876000083052,None,,,,,9,37,37,0,656.5451565999538,,,,,,,,,,,,,,,,656.5313711999916,656.5451565999538,657.5446011999738,657.5446011999738,657.5446011999738,657.5446011999738,657.5446011999738,658.544977499987,658.544977499987,659.0798607999459,x,1,0.5327876000083052,None,02,001,2025-10-03_14h53.18.482,motorselection,,2025.1.1,60.01720092102189,2025-10-03 14h53.46.410391 +0530,
-150,z,38,38,10,,,,,z,1,1.2326274000224657,None,,,,,10,38,38,3,659.0945254999679,,,,,,,,,,,,,,,,659.0808772000019,659.0945254999679,660.0948233999661,660.0948233999661,660.0948233999661,660.0948233999661,660.0948233999661,661.0943356999778,661.0943356999778,662.3280242999899,z,1,1.2326274000224657,None,02,001,2025-10-03_14h53.18.482,motorselection,,2025.1.1,60.01720092102189,2025-10-03 14h53.46.410391 +0530,
-50,x,39,39,10,,,,,x,1,0.7810571999871172,None,,,,,10,39,39,0,662.3439499999513,,,,,,,,,,,,,,,,662.3284935999545,662.3439499999513,663.3274713999708,663.3274713999708,663.3274713999708,663.3274713999708,663.3441575999605,664.3276820000028,664.3276820000028,665.1115117999725,x,1,0.7810571999871172,None,02,001,2025-10-03_14h53.18.482,motorselection,,2025.1.1,60.01720092102189,2025-10-03 14h53.46.410391 +0530,
