pos,corr_resp,thisN,thisTrialN,thisRepN,key_resp.keys,key_resp.corr,key_resp.rt,key_resp.duration,key_resp_2.keys,key_resp_2.corr,key_resp_2.rt,key_resp_2.duration,seq.thisRepN,seq.thisTrialN,seq.thisN,seq.thisIndex,ran.thisRepN,ran.thisTrialN,ran.thisN,ran.thisIndex,thisRow.t,notes,trial.started,fixation.started,line1.started,line2.started,line3.started,line4.started,fixation.stopped,probe.started,key_resp.started,trial.stopped,seq.key_resp.keys,seq.key_resp.corr,seq.key_resp.rt,seq.key_resp.duration,trial2.started,fixation2.started,lineA.started,lineB.started,lineC.started,lineD.started,fixation2.stopped,probe2.started,key_resp_2.started,trial2.stopped,ran.key_resp_2.keys,ran.key_resp_2.corr,ran.key_resp_2.rt,ran.key_resp_2.duration,participant,session,date,expName,expVersion,psychopyVersion,frameRate,expStart
-50,x,0,0,0,x,1,0.3277186,None,,,,,0,0,0,0,,,,,0.0171275,,0.0126848,0.0171275,0.9990676,0.9990676,0.9990676,0.9990676,1.0324872,2.0156106,2.0156106,2.3632014,x,1,0.3277186,None,,,,,,,,,,,,,,,3,1,2025-10-03_15h13.20.269,motorselection,,2025.1.1,59.98663499,2025-10-03 15h15.00.029022 +0530
150,v,1,1,0,v,1,0.3956625,None,,,,,0,1,1,1,,,,,2.3682329,,2.3641287,2.3682329,3.3650172,3.3650172,3.3650172,3.3650172,3.3816509,4.364969,4.364969,4.7657215,v,1,0.3956625,None,,,,,,,,,,,,,,,3,1,2025-10-03_15h13.20.269,motorselection,,2025.1.1,59.98663499,2025-10-03 15h15.00.029022 +0530
50,c,2,2,0,c,1,0.3199806,None,,,,,0,2,2,2,,,,,4.7820318,,4.7661797,4.7820318,5.7656926,5.7656926,5.7656926,5.7656926,5.7816871,6.7647122,6.7647122,7.0985292,c,1,0.3199806,None,,,,,,,,,,,,,,,3,1,2025-10-03_15h13.20.269,motorselection,,2025.1.1,59.98663499,2025-10-03 15h15.00.029022 +0530
-150,z,3,3,0,z,1,0.2462547,None,,,,,0,3,3,3,,,,,7.1146744,,7.0989889,7.1146744,8.0979421,8.0979421,8.0979421,8.0979421,8.1147788,9.0979075,9.0979075,9.3492306,z,1,0.2462547,None,,,,,,,,,,,,,,,3,1,2025-10-03_15h13.20.269,motorselection,,2025.1.1,59.98663499,2025-10-03 15h15.00.029022 +0530
-50,x,4,0,1,x,1,0.3190289,None,,,,,1,0,4,0,,,,,9.3646197,,9.3499013,9.3646197,10.3646559,10.3646559,10.3646559,10.3646559,10.3646559,11.3649566,11.3649566,11.6994405,x,1,0.3190289,None,,,,,,,,,,,,,,,3,1,2025-10-03_15h13.20.269,motorselection,,2025.1.1,59.98663499,2025-10-03 15h15.00.029022 +0530
150,v,5,1,1,v,1,0.2768077,None,,,,,1,1,5,1,,,,,11.7145981,,11.7004719,11.7145981,12.7148023,12.7148023,12.7148023,12.7148023,12.7148023,13.7148149,13.7148149,13.999686,v,1,0.2768077,None,,,,,,,,,,,,,,,3,1,2025-10-03_15h13.20.269,motorselection,,2025.1.1,59.98663499,2025-10-03 15h15.00.029022 +0530
50,c,6,2,1,c,1,0.4514475,None,,,,,1,2,6,2,,,,,14.0147337,,14.0007545,14.0147337,15.014645,15.014645,15.014645,15.014645,15.014645,16.0146617,16.0146617,16.4826784,c,1,0.4514475,None,,,,,,,,,,,,,,,3,1,2025-10-03_15h13.20.269,motorselection,,2025.1.1,59.98663499,2025-10-03 15h15.00.029022 +0530
-150,z,7,3,1,z,1,0.1344266,None,,,,,1,3,7,3,,,,,16.497608,,16.4842642,16.497608,17.4978024,17.4978024,17.4978024,17.4978024,17.4978024,18.4977764,18.4977764,18.6489073,z,1,0.1344266,None,,,,,,,,,,,,,,,3,1,2025-10-03_15h13.20.269,motorselection,,2025.1.1,59.98663499,2025-10-03 15h15.00.029022 +0530
-50,x,8,0,2,x,1,0.1673253,None,,,,,2,0,8,0,,,,,18.6642772,,18.6499973,18.6642772,19.6642259,19.6642259,19.6642259,19.6642259,19.6642259,20.6644035,20.6644035,20.8488556,x,1,0.1673253,None,,,,,,,,,,,,,,,3,1,2025-10-03_15h13.20.269,motorselection,,2025.1.1,59.98663499,2025-10-03 15h15.00.029022 +0530
150,v,9,1,2,v,1,0.2595062,None,,,,,2,1,9,1,,,,,20.8641921,,20.8503672,20.8641921,21.8639535,21.8639535,21.8639535,21.8639535,21.8639535,22.8639653,22.8639653,23.1321143,v,1,0.2595062,None,,,,,,,,,,,,,,,3,1,2025-10-03_15h13.20.269,motorselection,,2025.1.1,59.98663499,2025-10-03 15h15.00.029022 +0530
50,c,10,2,2,c,1,0.1887966,None,,,,,2,2,10,2,,,,,23.1472138,,23.133627,23.1472138,24.1471214,24.1471214,24.1471214,24.1471214,24.1471214,25.1469602,25.1469602,25.3483357,c,1,0.1887966,None,,,,,,,,,,,,,,,3,1,2025-10-03_15h13.20.269,motorselection,,2025.1.1,59.98663499,2025-10-03 15h15.00.029022 +0530
-150,z,11,3,2,z,1,0.0268639,None,,,,,2,3,11,3,,,,,25.363641,,25.3494755,25.363641,26.3636958,26.3636958,26.3636958,26.3636958,26.3636958,27.3634012,27.3634012,27.3978915,z,1,0.0268639,None,,,,,,,,,,,,,,,3,1,2025-10-03_15h13.20.269,motorselection,,2025.1.1,59.98663499,2025-10-03 15h15.00.029022 +0530
-50,x,12,0,3,x,1,0.3360902,None,,,,,3,0,12,0,,,,,27.4134125,,27.3991231,27.4134125,28.4134359,28.4134359,28.4134359,28.4134359,28.4134359,29.4132263,29.4132263,29.7648174,x,1,0.3360902,None,,,,,,,,,,,,,,,3,1,2025-10-03_15h13.20.269,motorselection,,2025.1.1,59.98663499,2025-10-03 15h15.00.029022 +0530
150,v,13,1,3,v,1,0.2237343,None,,,,,3,1,13,1,,,,,29.780045,,29.7660975,29.780045,30.7798194,30.7798194,30.7798194,30.7798194,30.7798194,31.7797172,31.7797172,32.0146593,v,1,0.2237343,None,,,,,,,,,,,,,,,3,1,2025-10-03_15h13.20.269,motorselection,,2025.1.1,59.98663499,2025-10-03 15h15.00.029022 +0530
50,c,14,2,3,c,1,0.2550081,None,,,,,3,2,14,2,,,,,32.0299763,,32.0159019,32.0299763,33.0295867,33.0295867,33.0295867,33.0295867,33.0295867,34.0293713,34.0293713,34.2974557,c,1,0.2550081,None,,,,,,,,,,,,,,,3,1,2025-10-03_15h13.20.269,motorselection,,2025.1.1,59.98663499,2025-10-03 15h15.00.029022 +0530
-150,z,15,3,3,z,1,0.2341355,None,,,,,3,3,15,3,,,,,34.3128074,,34.2987334,34.3128074,35.3127695,35.3127695,35.3127695,35.3127695,35.3127695,36.295897,36.295897,36.5469602,z,1,0.2341355,None,,,,,,,,,,,,,,,3,1,2025-10-03_15h13.20.269,motorselection,,2025.1.1,59.98663499,2025-10-03 15h15.00.029022 +0530
-50,x,16,0,4,x,1,0.3773345,None,,,,,4,0,16,0,,,,,36.5625168,,36.5483877,36.5625168,37.5617564,37.5617564,37.5617564,37.5617564,37.5617564,38.5622751,38.5622751,38.9472026,x,1,0.3773345,None,,,,,,,,,,,,,,,3,1,2025-10-03_15h13.20.269,motorselection,,2025.1.1,59.98663499,2025-10-03 15h15.00.029022 +0530
150,v,17,1,4,v,1,0.2331956,None,,,,,4,1,17,1,,,,,38.9619751,,38.9487713,38.9619751,39.9620901,39.9620901,39.9620901,39.9620901,39.9620901,40.9621042,40.9621042,41.1971243,v,1,0.2331956,None,,,,,,,,,,,,,,,3,1,2025-10-03_15h13.20.269,motorselection,,2025.1.1,59.98663499,2025-10-03 15h15.00.029022 +0530
50,c,18,2,4,c,1,0.3303239,None,,,,,4,2,18,2,,,,,41.2120785,,41.1982309,41.2120785,42.2120533,42.2120533,42.2120533,42.2120533,42.2120533,43.2118958,43.2118958,43.5473299,c,1,0.3303239,None,,,,,,,,,,,,,,,3,1,2025-10-03_15h13.20.269,motorselection,,2025.1.1,59.98663499,2025-10-03 15h15.00.029022 +0530
-150,z,19,3,4,z,1,0.4027338,None,,,,,4,3,19,3,,,,,43.5617426,,43.5489424,43.5617426,44.5618148,44.5618148,44.5618148,44.5618148,44.5618148,45.5617122,45.5617122,45.9798022,z,1,0.4027338,None,,,,,,,,,,,,,,,3,1,2025-10-03_15h13.20.269,motorselection,,2025.1.1,59.98663499,2025-10-03 15h15.00.029022 +0530
-50,x,20,0,5,x,1,0.3293903,None,,,,,5,0,20,0,,,,,45.9947647,,45.9810959,45.9947647,46.994942,46.994942,46.994942,46.994942,46.994942,47.9948496,47.9948496,48.3297609,x,1,0.3293903,None,,,,,,,,,,,,,,,3,1,2025-10-03_15h13.20.269,motorselection,,2025.1.1,59.98663499,2025-10-03 15h15.00.029022 +0530
150,v,21,1,5,v,1,1.1314768,None,,,,,5,1,21,1,,,,,48.3447592,,48.3311839,48.3447592,49.3445576,49.3445576,49.3445576,49.3445576,49.3445576,50.3443809,50.3443809,51.4792378,v,1,1.1314768,None,,,,,,,,,,,,,,,3,1,2025-10-03_15h13.20.269,motorselection,,2025.1.1,59.98663499,2025-10-03 15h15.00.029022 +0530
50,c,22,2,5,c,1,0.4047008,None,,,,,5,2,22,2,,,,,51.4944058,,51.4805052,51.4944058,52.4943033,52.4943033,52.4943033,52.4943033,52.4943033,53.4942231,53.4942231,53.912312,c,1,0.4047008,None,,,,,,,,,,,,,,,3,1,2025-10-03_15h13.20.269,motorselection,,2025.1.1,59.98663499,2025-10-03 15h15.00.029022 +0530
-150,z,23,3,5,z,1,0.3076364,None,,,,,5,3,23,3,,,,,53.9274911,,53.9136231,53.9274911,54.9274364,54.9274364,54.9274364,54.9274364,54.9274364,55.9271923,55.9271923,56.245505,z,1,0.3076364,None,,,,,,,,,,,,,,,3,1,2025-10-03_15h13.20.269,motorselection,,2025.1.1,59.98663499,2025-10-03 15h15.00.029022 +0530
-50,x,24,0,6,x,1,1.5756379,None,,,,,6,0,24,0,,,,,56.2605963,,56.2468566,56.2605963,57.2605223,57.2605223,57.2605223,57.2605223,57.2605223,58.2604189,58.2604189,59.8450624,x,1,1.5756379,None,,,,,,,,,,,,,,,3,1,2025-10-03_15h13.20.269,motorselection,,2025.1.1,59.98663499,2025-10-03 15h15.00.029022 +0530
150,v,25,1,6,v,1,0.3423467,None,,,,,6,1,25,1,,,,,59.8605717,,59.846587,59.8605717,60.8600108,60.8600108,60.8600108,60.8600108,60.8600108,61.8599962,61.8599962,62.2112977,v,1,0.3423467,None,,,,,,,,,,,,,,,3,1,2025-10-03_15h13.20.269,motorselection,,2025.1.1,59.98663499,2025-10-03 15h15.00.029022 +0530
50,c,26,2,6,c,1,0.3910656,None,,,,,6,2,26,2,,,,,62.2265268,,62.2124981,62.2265268,63.2265752,63.2265752,63.2265752,63.2265752,63.2265752,64.2264046,64.2264046,64.6282893,c,1,0.3910656,None,,,,,,,,,,,,,,,3,1,2025-10-03_15h13.20.269,motorselection,,2025.1.1,59.98663499,2025-10-03 15h15.00.029022 +0530
-150,z,27,3,6,z,1,1.0759188,None,,,,,6,3,27,3,,,,,64.6431555,,64.6298503,64.6431555,65.6427911,65.6427911,65.6427911,65.6427911,65.6427911,66.6428167,66.6428167,67.7275183,z,1,1.0759188,None,,,,,,,,,,,,,,,3,1,2025-10-03_15h13.20.269,motorselection,,2025.1.1,59.98663499,2025-10-03 15h15.00.029022 +0530
-50,x,28,0,7,x,1,0.3140382,None,,,,,7,0,28,0,,,,,67.7427732,,67.7288,67.7427732,68.7426799,68.7426799,68.7426799,68.7426799,68.7426799,69.7425902,69.7425902,70.0605113,x,1,0.3140382,None,,,,,,,,,,,,,,,3,1,2025-10-03_15h13.20.269,motorselection,,2025.1.1,59.98663499,2025-10-03 15h15.00.029022 +0530
150,v,29,1,7,v,1,0.3590926,None,,,,,7,1,29,1,,,,,70.0758095,,70.0618968,70.0758095,71.0756914,71.0756914,71.0756914,71.0756914,71.0756914,72.0755464,72.0755464,72.4436783,v,1,0.3590926,None,,,,,,,,,,,,,,,3,1,2025-10-03_15h13.20.269,motorselection,,2025.1.1,59.98663499,2025-10-03 15h15.00.029022 +0530
50,c,30,2,7,c,1,0.4875923,None,,,,,7,2,30,2,,,,,72.4589672,,72.4449126,72.4589672,73.4588715,73.4588715,73.4588715,73.4588715,73.4588715,74.4587776,74.4587776,74.960323,c,1,0.4875923,None,,,,,,,,,,,,,,,3,1,2025-10-03_15h13.20.269,motorselection,,2025.1.1,59.98663499,2025-10-03 15h15.00.029022 +0530
-150,z,31,3,7,z,1,0.9038882,None,,,,,7,3,31,3,,,,,74.9752643,,74.96175,74.9752643,75.9752034,75.9752034,75.9752034,75.9752034,75.9752034,76.9751455,76.9751455,77.893642,z,1,0.9038882,None,,,,,,,,,,,,,,,3,1,2025-10-03_15h13.20.269,motorselection,,2025.1.1,59.98663499,2025-10-03 15h15.00.029022 +0530
-50,x,32,0,8,x,1,0.3660487,None,,,,,8,0,32,0,,,,,77.9081884,,77.8950197,77.9081884,78.9083111,78.9083111,78.9083111,78.9083111,78.9083111,79.9082891,79.9082891,80.2760697,x,1,0.3660487,None,,,,,,,,,,,,,,,3,1,2025-10-03_15h13.20.269,motorselection,,2025.1.1,59.98663499,2025-10-03 15h15.00.029022 +0530
150,v,33,1,8,v,1,1.3649415,None,,,,,8,1,33,1,,,,,80.2914966,,80.2772375,80.2914966,81.2915007,81.2915007,81.2915007,81.2915007,81.2915007,82.2913378,82.2913378,83.6593182,v,1,1.3649415,None,,,,,,,,,,,,,,,3,1,2025-10-03_15h13.20.269,motorselection,,2025.1.1,59.98663499,2025-10-03 15h15.00.029022 +0530
50,c,34,2,8,c,1,0.2929799,None,,,,,8,2,34,2,,,,,83.6746204,,83.6608149,83.6746204,84.674344,84.674344,84.674344,84.674344,84.674344,85.6743582,85.6743582,85.9761036,c,1,0.2929799,None,,,,,,,,,,,,,,,3,1,2025-10-03_15h13.20.269,motorselection,,2025.1.1,59.98663499,2025-10-03 15h15.00.029022 +0530
-150,z,35,3,8,z,1,0.5033711,None,,,,,8,3,35,3,,,,,85.9909454,,85.9789889,85.9909454,86.9908754,86.9908754,86.9908754,86.9908754,86.9908754,87.9907491,87.9907491,88.5088369,z,1,0.5033711,None,,,,,,,,,,,,,,,3,1,2025-10-03_15h13.20.269,motorselection,,2025.1.1,59.98663499,2025-10-03 15h15.00.029022 +0530
-50,x,36,0,9,x,1,2.1812386,None,,,,,9,0,36,0,,,,,88.5239875,,88.5101421,88.5239875,89.5240335,89.5240335,89.5240335,89.5240335,89.5240335,90.5238431,90.5238431,92.7085051,x,1,2.1812386,None,,,,,,,,,,,,,,,3,1,2025-10-03_15h13.20.269,motorselection,,2025.1.1,59.98663499,2025-10-03 15h15.00.029022 +0530
150,v,37,1,9,v,1,0.2511862,None,,,,,9,1,37,1,,,,,92.7236114,,92.7101055,92.7236114,93.7235131,93.7235131,93.7235131,93.7235131,93.7235131,94.723481,94.723481,94.991275,v,1,0.2511862,None,,,,,,,,,,,,,,,3,1,2025-10-03_15h13.20.269,motorselection,,2025.1.1,59.98663499,2025-10-03 15h15.00.029022 +0530
50,c,38,2,9,c,1,0.3700352,None,,,,,9,2,38,2,,,,,95.0066966,,94.9924804,95.0066966,96.0061816,96.0061816,96.0061816,96.0061816,96.0061816,97.0064421,97.0064421,97.3914253,c,1,0.3700352,None,,,,,,,,,,,,,,,3,1,2025-10-03_15h13.20.269,motorselection,,2025.1.1,59.98663499,2025-10-03 15h15.00.029022 +0530
-150,z,39,3,9,z,1,0.0866139,None,,,,,9,3,39,3,,,,,97.4064437,,97.3929988,97.4064437,98.4058447,98.4058447,98.4058447,98.4058447,98.4058447,99.4061773,99.4061773,99.5076776,z,1,0.0866139,None,,,,,,,,,,,,,,,3,1,2025-10-03_15h13.20.269,motorselection,,2025.1.1,59.98663499,2025-10-03 15h15.00.029022 +0530
-50,x,40,0,10,x,1,0.2415817,None,,,,,10,0,40,0,,,,,99.522793,,99.509186,99.522793,100.5226666,100.5226666,100.5226666,100.5226666,100.5226666,101.5221485,101.5221485,101.7730495,x,1,0.2415817,None,,,,,,,,,,,,,,,3,1,2025-10-03_15h13.20.269,motorselection,,2025.1.1,59.98663499,2025-10-03 15h15.00.029022 +0530
150,v,41,1,10,v,1,0.1335451,None,,,,,10,1,41,1,,,,,101.7887144,,101.7740671,101.7887144,102.7886152,102.7886152,102.7886152,102.7886152,102.7886152,103.7885485,103.7885485,103.9230153,v,1,0.1335451,None,,,,,,,,,,,,,,,3,1,2025-10-03_15h13.20.269,motorselection,,2025.1.1,59.98663499,2025-10-03 15h15.00.029022 +0530
50,c,42,2,10,c,1,0.9289577,None,,,,,10,2,42,2,,,,,103.9385349,,103.9237226,103.9385349,104.9383783,104.9383783,104.9383783,104.9383783,104.9383783,105.9380376,105.9380376,106.8732288,c,1,0.9289577,None,,,,,,,,,,,,,,,3,1,2025-10-03_15h13.20.269,motorselection,,2025.1.1,59.98663499,2025-10-03 15h15.00.029022 +0530
-150,z,43,3,10,z,1,0.3225186,None,,,,,10,3,43,3,,,,,106.8883504,,106.8744365,106.8883504,107.887942,107.887942,107.887942,107.887942,107.887942,108.8882607,108.8882607,109.2224033,z,1,0.3225186,None,,,,,,,,,,,,,,,3,1,2025-10-03_15h13.20.269,motorselection,,2025.1.1,59.98663499,2025-10-03 15h15.00.029022 +0530
-50,x,44,0,11,x,1,1.877483,None,,,,,11,0,44,0,,,,,109.2381975,,109.2232221,109.2381975,110.2217804,110.2217804,110.2217804,110.2217804,110.2384487,111.2216191,111.2216191,113.1061143,x,1,1.877483,None,,,,,,,,,,,,,,,3,1,2025-10-03_15h13.20.269,motorselection,,2025.1.1,59.98663499,2025-10-03 15h15.00.029022 +0530
150,v,45,1,11,v,1,0.0072856,None,,,,,11,1,45,1,,,,,113.1214403,,113.1074988,113.1214403,114.1214045,114.1214045,114.1214045,114.1214045,114.1214045,115.1214945,115.1214945,115.1398512,v,1,0.0072856,None,,,,,,,,,,,,,,,3,1,2025-10-03_15h13.20.269,motorselection,,2025.1.1,59.98663499,2025-10-03 15h15.00.029022 +0530
50,c,46,2,11,c,1,0.9142382,None,,,,,11,2,46,2,,,,,115.1546573,,115.1412837,115.1546573,116.1545899,116.1545899,116.1545899,116.1545899,116.1545899,117.1545608,117.1545608,118.0725172,c,1,0.9142382,None,,,,,,,,,,,,,,,3,1,2025-10-03_15h13.20.269,motorselection,,2025.1.1,59.98663499,2025-10-03 15h15.00.029022 +0530
-150,z,47,3,11,z,1,0.3665743,None,,,,,11,3,47,3,,,,,118.0877044,,118.0738605,118.0877044,119.087521,119.087521,119.087521,119.087521,119.087521,120.0871323,120.0871323,120.4550135,z,1,0.3665743,None,,,,,,,,,,,,,,,3,1,2025-10-03_15h13.20.269,motorselection,,2025.1.1,59.98663499,2025-10-03 15h15.00.029022 +0530
-50,x,48,0,12,x,1,1.0457685,None,,,,,12,0,48,0,,,,,120.4706033,,120.4559356,120.4706033,121.4708186,121.4708186,121.4708186,121.4708186,121.4708186,122.4706317,122.4706317,123.5225505,x,1,1.0457685,None,,,,,,,,,,,,,,,3,1,2025-10-03_15h13.20.269,motorselection,,2025.1.1,59.98663499,2025-10-03 15h15.00.029022 +0530
150,v,49,1,12,v,1,0.6410641,None,,,,,12,1,49,1,,,,,123.5372078,,123.5248901,123.5372078,124.5370753,124.5370753,124.5370753,124.5370753,124.5370753,125.5368975,125.5368975,126.1883346,v,1,0.6410641,None,,,,,,,,,,,,,,,3,1,2025-10-03_15h13.20.269,motorselection,,2025.1.1,59.98663499,2025-10-03 15h15.00.029022 +0530
50,c,50,2,12,c,1,0.498224,None,,,,,12,2,50,2,,,,,126.2035257,,126.1896344,126.2035257,127.2034245,127.2034245,127.2034245,127.2034245,127.2034245,128.2033876,128.2033876,128.7050045,c,1,0.498224,None,,,,,,,,,,,,,,,3,1,2025-10-03_15h13.20.269,motorselection,,2025.1.1,59.98663499,2025-10-03 15h15.00.029022 +0530
-150,z,51,3,12,z,1,0.2957503,None,,,,,12,3,51,3,,,,,128.7199351,,128.7065909,128.7199351,129.7199014,129.7199014,129.7199014,129.7199014,129.7199014,130.7198281,130.7198281,131.0215475,z,1,0.2957503,None,,,,,,,,,,,,,,,3,1,2025-10-03_15h13.20.269,motorselection,,2025.1.1,59.98663499,2025-10-03 15h15.00.029022 +0530
-50,x,52,0,13,x,1,1.4332886,None,,,,,13,0,52,0,,,,,131.0364424,,131.0231128,131.0364424,132.0363735,132.0363735,132.0363735,132.0363735,132.0363735,133.0361852,133.0361852,134.4714272,x,1,1.4332886,None,,,,,,,,,,,,,,,3,1,2025-10-03_15h13.20.269,motorselection,,2025.1.1,59.98663499,2025-10-03 15h15.00.029022 +0530
150,v,53,1,13,v,1,0.3392768,None,,,,,13,1,53,1,,,,,134.486017,,134.473034,134.486017,135.4859705,135.4859705,135.4859705,135.4859705,135.4859705,136.4858056,136.4858056,136.8372269,v,1,0.3392768,None,,,,,,,,,,,,,,,3,1,2025-10-03_15h13.20.269,motorselection,,2025.1.1,59.98663499,2025-10-03 15h15.00.029022 +0530
50,c,54,2,13,c,1,0.3778691,None,,,,,13,2,54,2,,,,,136.852552,,136.8385331,136.852552,137.8524473,137.8524473,137.8524473,137.8524473,137.8524473,138.8523403,138.8523403,139.2371664,c,1,0.3778691,None,,,,,,,,,,,,,,,3,1,2025-10-03_15h13.20.269,motorselection,,2025.1.1,59.98663499,2025-10-03 15h15.00.029022 +0530
-150,z,55,3,13,z,1,1.1835845,None,,,,,13,3,55,3,,,,,139.2520236,,139.2388752,139.2520236,140.2521716,140.2521716,140.2521716,140.2521716,140.2521716,141.2520083,141.2520083,142.4368629,z,1,1.1835845,None,,,,,,,,,,,,,,,3,1,2025-10-03_15h13.20.269,motorselection,,2025.1.1,59.98663499,2025-10-03 15h15.00.029022 +0530
-50,x,56,0,14,x,1,0.3449649,None,,,,,14,0,56,0,,,,,142.4519649,,142.4380072,142.4519649,143.4518289,143.4518289,143.4518289,143.4518289,143.4518289,144.4516697,144.4516697,144.8035223,x,1,0.3449649,None,,,,,,,,,,,,,,,3,1,2025-10-03_15h13.20.269,motorselection,,2025.1.1,59.98663499,2025-10-03 15h15.00.029022 +0530
150,v,57,1,14,v,1,0.2521347,None,,,,,14,1,57,1,,,,,144.8181173,,144.8047447,144.8181173,145.8183068,145.8183068,145.8183068,145.8183068,145.8183068,146.818115,146.818115,147.0863818,v,1,0.2521347,None,,,,,,,,,,,,,,,3,1,2025-10-03_15h13.20.269,motorselection,,2025.1.1,59.98663499,2025-10-03 15h15.00.029022 +0530
50,c,58,2,14,c,1,0.1763864,None,,,,,14,2,58,2,,,,,147.1014801,,147.0877537,147.1014801,148.1014407,148.1014407,148.1014407,148.1014407,148.1014407,149.1013228,149.1013228,149.285875,c,1,0.1763864,None,,,,,,,,,,,,,,,3,1,2025-10-03_15h13.20.269,motorselection,,2025.1.1,59.98663499,2025-10-03 15h15.00.029022 +0530
-150,z,59,3,14,z,1,0.3110135,None,,,,,14,3,59,3,,,,,149.3012644,,149.2871804,149.3012644,150.3012035,150.3012035,150.3012035,150.3012035,150.3012035,151.3010201,151.3010201,151.6191632,z,1,0.3110135,None,,,,,,,,,,,,,,,3,1,2025-10-03_15h13.20.269,motorselection,,2025.1.1,59.98663499,2025-10-03 15h15.00.029022 +0530
-50,x,60,0,15,x,1,0.2364655,None,,,,,15,0,60,0,,,,,151.6344101,,151.6204681,151.6344101,152.6343143,152.6343143,152.6343143,152.6343143,152.6343143,153.6341528,153.6341528,153.8855932,x,1,0.2364655,None,,,,,,,,,,,,,,,3,1,2025-10-03_15h13.20.269,motorselection,,2025.1.1,59.98663499,2025-10-03 15h15.00.029022 +0530
150,v,61,1,15,v,1,0.3314593,None,,,,,15,1,61,1,,,,,153.9008098,,153.8868686,153.9008098,154.9006585,154.9006585,154.9006585,154.9006585,154.9006585,155.9006461,155.9006461,156.235228,v,1,0.3314593,None,,,,,,,,,,,,,,,3,1,2025-10-03_15h13.20.269,motorselection,,2025.1.1,59.98663499,2025-10-03 15h15.00.029022 +0530
50,c,62,2,15,c,1,0.3040882,None,,,,,15,2,62,2,,,,,156.2505778,,156.2365703,156.2505778,157.2504579,157.2504579,157.2504579,157.2504579,157.2504579,158.2503851,158.2503851,158.5690211,c,1,0.3040882,None,,,,,,,,,,,,,,,3,1,2025-10-03_15h13.20.269,motorselection,,2025.1.1,59.98663499,2025-10-03 15h15.00.029022 +0530
-150,z,63,3,15,z,1,0.5010238,None,,,,,15,3,63,3,,,,,158.5834668,,158.5707136,158.5834668,159.5835379,159.5835379,159.5835379,159.5835379,159.5835379,160.5834959,160.5834959,161.1017333,z,1,0.5010238,None,,,,,,,,,,,,,,,3,1,2025-10-03_15h13.20.269,motorselection,,2025.1.1,59.98663499,2025-10-03 15h15.00.029022 +0530
-50,x,64,0,16,x,1,0.3796697,None,,,,,16,0,64,0,,,,,161.1167063,,161.1032071,161.1167063,162.1166514,162.1166514,162.1166514,162.1166514,162.1166514,163.1165932,163.1165932,163.4998477,x,1,0.3796697,None,,,,,,,,,,,,,,,3,1,2025-10-03_15h13.20.269,motorselection,,2025.1.1,59.98663499,2025-10-03 15h15.00.029022 +0530
150,v,65,1,16,v,1,0.3275487,None,,,,,16,1,65,1,,,,,163.5158733,,163.5002233,163.5158733,164.4997504,164.4997504,164.4997504,164.4997504,164.5164281,165.4996785,165.4996785,165.8346126,v,1,0.3275487,None,,,,,,,,,,,,,,,3,1,2025-10-03_15h13.20.269,motorselection,,2025.1.1,59.98663499,2025-10-03 15h15.00.029022 +0530
50,c,66,2,16,c,1,0.5733252,None,,,,,16,2,66,2,,,,,165.8495376,,165.8358646,165.8495376,166.8495138,166.8495138,166.8495138,166.8495138,166.8495138,167.8494286,167.8494286,168.4342418,c,1,0.5733252,None,,,,,,,,,,,,,,,3,1,2025-10-03_15h13.20.269,motorselection,,2025.1.1,59.98663499,2025-10-03 15h15.00.029022 +0530
-150,z,67,3,16,z,1,0.7786744,None,,,,,16,3,67,3,,,,,168.4492632,,168.435502,168.4492632,169.4492847,169.4492847,169.4492847,169.4492847,169.4492847,170.4490514,170.4490514,171.2342428,z,1,0.7786744,None,,,,,,,,,,,,,,,3,1,2025-10-03_15h13.20.269,motorselection,,2025.1.1,59.98663499,2025-10-03 15h15.00.029022 +0530
-50,x,68,0,17,x,1,0.3281973,None,,,,,17,0,68,0,,,,,171.2489273,,171.235666,171.2489273,172.2489837,172.2489837,172.2489837,172.2489837,172.2489837,173.2489208,173.2489208,173.5839901,x,1,0.3281973,None,,,,,,,,,,,,,,,3,1,2025-10-03_15h13.20.269,motorselection,,2025.1.1,59.98663499,2025-10-03 15h15.00.029022 +0530
150,v,69,1,17,v,1,0.0609932,None,,,,,17,1,69,1,,,,,173.5988199,,173.5852787,173.5988199,174.5988021,174.5988021,174.5988021,174.5988021,174.5988021,175.5986381,175.5986381,175.6667292,v,1,0.0609932,None,,,,,,,,,,,,,,,3,1,2025-10-03_15h13.20.269,motorselection,,2025.1.1,59.98663499,2025-10-03 15h15.00.029022 +0530
50,c,70,2,17,c,1,0.2755061,None,,,,,17,2,70,2,,,,,175.6820081,,175.6680834,175.6820081,176.6818672,176.6818672,176.6818672,176.6818672,176.6818672,177.6817621,177.6817621,177.9664781,c,1,0.2755061,None,,,,,,,,,,,,,,,3,1,2025-10-03_15h13.20.269,motorselection,,2025.1.1,59.98663499,2025-10-03 15h15.00.029022 +0530
-150,z,71,3,17,z,1,0.5033827,None,,,,,17,3,71,3,,,,,177.9817349,,177.9679827,177.9817349,178.9807986,178.9807986,178.9807986,178.9807986,178.9807986,179.9809919,179.9809919,180.4980893,z,1,0.5033827,None,,,,,,,,,,,,,,,3,1,2025-10-03_15h13.20.269,motorselection,,2025.1.1,59.98663499,2025-10-03 15h15.00.029022 +0530
-50,x,72,0,18,x,1,0.2244103,None,,,,,18,0,72,0,,,,,180.5141065,,180.4985661,180.5141065,181.4971738,181.4971738,181.4971738,181.4971738,181.5138211,182.5137055,182.5137055,182.747385,x,1,0.2244103,None,,,,,,,,,,,,,,,3,1,2025-10-03_15h13.20.269,motorselection,,2025.1.1,59.98663499,2025-10-03 15h15.00.029022 +0530
150,v,73,1,18,v,1,0.3070777,None,,,,,18,1,73,1,,,,,182.7636669,,182.7476946,182.7636669,183.747135,183.747135,183.747135,183.747135,183.763799,184.7469068,184.7469068,185.0643566,v,1,0.3070777,None,,,,,,,,,,,,,,,3,1,2025-10-03_15h13.20.269,motorselection,,2025.1.1,59.98663499,2025-10-03 15h15.00.029022 +0530
50,c,74,2,18,c,1,0.720139,None,,,,,18,2,74,2,,,,,185.0801405,,185.0650541,185.0801405,186.0640524,186.0640524,186.0640524,186.0640524,186.0805179,187.0639497,187.0639497,187.7983961,c,1,0.720139,None,,,,,,,,,,,,,,,3,1,2025-10-03_15h13.20.269,motorselection,,2025.1.1,59.98663499,2025-10-03 15h15.00.029022 +0530
-150,z,75,3,18,z,1,0.4483084,None,,,,,18,3,75,3,,,,,187.8138709,,187.7994111,187.8138709,188.8138926,188.8138926,188.8138926,188.8138926,188.8138926,189.8137955,189.8137955,190.2650366,z,1,0.4483084,None,,,,,,,,,,,,,,,3,1,2025-10-03_15h13.20.269,motorselection,,2025.1.1,59.98663499,2025-10-03 15h15.00.029022 +0530
-50,x,76,0,19,x,1,0.3947391,None,,,,,19,0,76,0,,,,,190.2803323,,190.266163,190.2803323,191.2801224,191.2801224,191.2801224,191.2801224,191.2801224,192.2801663,192.2801663,192.681807,x,1,0.3947391,None,,,,,,,,,,,,,,,3,1,2025-10-03_15h13.20.269,motorselection,,2025.1.1,59.98663499,2025-10-03 15h15.00.029022 +0530
150,v,77,1,19,v,1,0.2265709,None,,,,,19,1,77,1,,,,,192.6968451,,192.6832605,192.6968451,193.6968137,193.6968137,193.6968137,193.6968137,193.6968137,194.6966336,194.6966336,194.9314892,v,1,0.2265709,None,,,,,,,,,,,,,,,3,1,2025-10-03_15h13.20.269,motorselection,,2025.1.1,59.98663499,2025-10-03 15h15.00.029022 +0530
50,c,78,2,19,c,1,0.2686332,None,,,,,19,2,78,2,,,,,194.9465644,,194.9329686,194.9465644,195.9464603,195.9464603,195.9464603,195.9464603,195.9464603,196.9464324,196.9464324,197.231178,c,1,0.2686332,None,,,,,,,,,,,,,,,3,1,2025-10-03_15h13.20.269,motorselection,,2025.1.1,59.98663499,2025-10-03 15h15.00.029022 +0530
-150,z,79,3,19,z,1,0.2224951,None,,,,,19,3,79,3,,,,,197.2462726,,197.232648,197.2462726,198.2462362,198.2462362,198.2462362,198.2462362,198.2462362,199.2462446,199.2462446,199.4808336,z,1,0.2224951,None,,,,,,,,,,,,,,,3,1,2025-10-03_15h13.20.269,motorselection,,2025.1.1,59.98663499,2025-10-03 15h15.00.029022 +0530
-50,x,80,0,20,x,1,0.4355298,None,,,,,20,0,80,0,,,,,199.4960183,,199.4818805,199.4960183,200.4960103,200.4960103,200.4960103,200.4960103,200.4960103,201.4959849,201.4959849,201.9473662,x,1,0.4355298,None,,,,,,,,,,,,,,,3,1,2025-10-03_15h13.20.269,motorselection,,2025.1.1,59.98663499,2025-10-03 15h15.00.029022 +0530
150,v,81,1,20,v,1,0.419797,None,,,,,20,1,81,1,,,,,201.9626425,,201.9487377,201.9626425,202.9625802,202.9625802,202.9625802,202.9625802,202.9625802,203.9624327,203.9624327,204.3966185,v,1,0.419797,None,,,,,,,,,,,,,,,3,1,2025-10-03_15h13.20.269,motorselection,,2025.1.1,59.98663499,2025-10-03 15h15.00.029022 +0530
50,c,82,2,20,c,1,0.3180961,None,,,,,20,2,82,2,,,,,204.4123459,,204.3978997,204.4123459,205.4123304,205.4123304,205.4123304,205.4123304,205.4123304,206.4121936,206.4121936,206.746542,c,1,0.3180961,None,,,,,,,,,,,,,,,3,1,2025-10-03_15h13.20.269,motorselection,,2025.1.1,59.98663499,2025-10-03 15h15.00.029022 +0530
-150,z,83,3,20,z,1,0.5136489,None,,,,,20,3,83,3,,,,,206.7620829,,206.7476957,206.7620829,207.7620774,207.7620774,207.7620774,207.7620774,207.7620774,208.7619373,208.7619373,209.28017,z,1,0.5136489,None,,,,,,,,,,,,,,,3,1,2025-10-03_15h13.20.269,motorselection,,2025.1.1,59.98663499,2025-10-03 15h15.00.029022 +0530
-50,x,84,0,21,x,1,0.5486249,None,,,,,21,0,84,0,,,,,209.2951372,,209.2815571,209.2951372,210.2950434,210.2950434,210.2950434,210.2950434,210.2950434,211.2950025,211.2950025,211.8465163,x,1,0.5486249,None,,,,,,,,,,,,,,,3,1,2025-10-03_15h13.20.269,motorselection,,2025.1.1,59.98663499,2025-10-03 15h15.00.029022 +0530
150,v,85,1,21,v,1,0.2526772,None,,,,,21,1,85,1,,,,,211.8616631,,211.8477871,211.8616631,212.861556,212.861556,212.861556,212.861556,212.861556,213.8614727,213.8614727,214.1296884,v,1,0.2526772,None,,,,,,,,,,,,,,,3,1,2025-10-03_15h13.20.269,motorselection,,2025.1.1,59.98663499,2025-10-03 15h15.00.029022 +0530
50,c,86,2,21,c,1,0.2260753,None,,,,,21,2,86,2,,,,,214.1447142,,214.1311036,214.1447142,215.1445351,215.1445351,215.1445351,215.1445351,215.1445351,216.1444919,216.1444919,216.3792179,c,1,0.2260753,None,,,,,,,,,,,,,,,3,1,2025-10-03_15h13.20.269,motorselection,,2025.1.1,59.98663499,2025-10-03 15h15.00.029022 +0530
-150,z,87,3,21,z,1,0.8580768,None,,,,,21,3,87,3,,,,,216.3944642,,216.380608,216.3944642,217.3944854,217.3944854,217.3944854,217.3944854,217.3944854,218.3935725,218.3935725,219.2613165,z,1,0.8580768,None,,,,,,,,,,,,,,,3,1,2025-10-03_15h13.20.269,motorselection,,2025.1.1,59.98663499,2025-10-03 15h15.00.029022 +0530
-50,x,88,0,22,x,1,0.5252102,None,,,,,22,0,88,0,,,,,219.2767268,,219.2622368,219.2767268,220.2768269,220.2768269,220.2768269,220.2768269,220.2768269,221.27682,221.27682,221.8103553,x,1,0.5252102,None,,,,,,,,,,,,,,,3,1,2025-10-03_15h13.20.269,motorselection,,2025.1.1,59.98663499,2025-10-03 15h15.00.029022 +0530
150,v,89,1,22,v,1,0.3454869,None,,,,,22,1,89,1,,,,,221.8264705,,221.8108518,221.8264705,222.8096703,222.8096703,222.8096703,222.8096703,222.8263877,223.8096819,223.8096819,224.1605468,v,1,0.3454869,None,,,,,,,,,,,,,,,3,1,2025-10-03_15h13.20.269,motorselection,,2025.1.1,59.98663499,2025-10-03 15h15.00.029022 +0530
50,c,90,2,22,c,1,0.3635557,None,,,,,22,2,90,2,,,,,224.1763293,,224.1611709,224.1763293,225.176209,225.176209,225.176209,225.176209,225.176209,226.1598637,226.1598637,226.526989,c,1,0.3635557,None,,,,,,,,,,,,,,,3,1,2025-10-03_15h13.20.269,motorselection,,2025.1.1,59.98663499,2025-10-03 15h15.00.029022 +0530
-150,z,91,3,22,z,1,0.1688901,None,,,,,22,3,91,3,,,,,226.5433768,,226.5276141,226.5433768,227.5264135,227.5264135,227.5264135,227.5264135,227.5433593,228.5264585,228.5264585,228.711127,z,1,0.1688901,None,,,,,,,,,,,,,,,3,1,2025-10-03_15h13.20.269,motorselection,,2025.1.1,59.98663499,2025-10-03 15h15.00.029022 +0530
-50,x,92,0,23,x,1,0.3258431,None,,,,,23,0,92,0,,,,,228.7265426,,228.7122601,228.7265426,229.7265554,229.7265554,229.7265554,229.7265554,229.7265554,230.7264196,230.7264196,231.061337,x,1,0.3258431,None,,,,,,,,,,,,,,,3,1,2025-10-03_15h13.20.269,motorselection,,2025.1.1,59.98663499,2025-10-03 15h15.00.029022 +0530
150,v,93,1,23,c,0,0.3445193,None,,,,,23,1,93,1,,,,,231.0762957,,231.0629717,231.0762957,232.0762061,232.0762061,232.0762061,232.0762061,232.0762061,233.0760698,233.0760698,233.4275931,c,0,0.3445193,None,,,,,,,,,,,,,,,3,1,2025-10-03_15h13.20.269,motorselection,,2025.1.1,59.98663499,2025-10-03 15h15.00.029022 +0530
50,c,94,2,23,c,1,0.2759507,None,,,,,23,2,94,2,,,,,233.4427966,,233.4288411,233.4427966,234.4427426,234.4427426,234.4427426,234.4427426,234.4427426,235.4426684,235.4426684,235.7272909,c,1,0.2759507,None,,,,,,,,,,,,,,,3,1,2025-10-03_15h13.20.269,motorselection,,2025.1.1,59.98663499,2025-10-03 15h15.00.029022 +0530
-150,z,95,3,23,z,1,1.1256047,None,,,,,23,3,95,3,,,,,235.7425346,,235.7287537,235.7425346,236.7424897,236.7424897,236.7424897,236.7424897,236.7424897,237.7423616,237.7423616,238.876552,z,1,1.1256047,None,,,,,,,,,,,,,,,3,1,2025-10-03_15h13.20.269,motorselection,,2025.1.1,59.98663499,2025-10-03 15h15.00.029022 +0530
-50,x,96,0,24,x,1,0.3257629,None,,,,,24,0,96,0,,,,,238.8922742,,238.877594,238.8922742,239.892154,239.892154,239.892154,239.892154,239.892154,240.8920745,240.8920745,241.226915,x,1,0.3257629,None,,,,,,,,,,,,,,,3,1,2025-10-03_15h13.20.269,motorselection,,2025.1.1,59.98663499,2025-10-03 15h15.00.029022 +0530
150,v,97,1,24,v,1,0.2862553,None,,,,,24,1,97,1,,,,,241.2422169,,241.2283383,241.2422169,242.2420024,242.2420024,242.2420024,242.2420024,242.2420024,243.2418172,243.2418172,243.5430206,v,1,0.2862553,None,,,,,,,,,,,,,,,3,1,2025-10-03_15h13.20.269,motorselection,,2025.1.1,59.98663499,2025-10-03 15h15.00.029022 +0530
50,c,98,2,24,c,1,0.3065046,None,,,,,24,2,98,2,,,,,243.558375,,243.5441014,243.558375,244.5583652,244.5583652,244.5583652,244.5583652,244.5583652,245.55825,245.55825,245.8760084,c,1,0.3065046,None,,,,,,,,,,,,,,,3,1,2025-10-03_15h13.20.269,motorselection,,2025.1.1,59.98663499,2025-10-03 15h15.00.029022 +0530
-150,z,99,3,24,z,1,0.1414864,None,,,,,24,3,99,3,,,,,245.8915488,,245.8772567,245.8915488,246.891449,246.891449,246.891449,246.891449,246.891449,247.8912781,247.8912781,248.0426964,z,1,0.1414864,None,,,,,,,,,,,,,,,3,1,2025-10-03_15h13.20.269,motorselection,,2025.1.1,59.98663499,2025-10-03 15h15.00.029022 +0530
-50,x,100,0,25,x,1,0.4057762,None,,,,,25,0,100,0,,,,,248.0575562,,248.0439756,248.0575562,249.0579012,249.0579012,249.0579012,249.0579012,249.0579012,250.057849,250.057849,250.4759735,x,1,0.4057762,None,,,,,,,,,,,,,,,3,1,2025-10-03_15h13.20.269,motorselection,,2025.1.1,59.98663499,2025-10-03 15h15.00.029022 +0530
150,v,101,1,25,v,1,0.2776723,None,,,,,25,1,101,1,,,,,250.4910948,,250.4772434,250.4910948,251.4910226,251.4910226,251.4910226,251.4910226,251.4910226,252.4907854,252.4907854,252.7757695,v,1,0.2776723,None,,,,,,,,,,,,,,,3,1,2025-10-03_15h13.20.269,motorselection,,2025.1.1,59.98663499,2025-10-03 15h15.00.029022 +0530
50,c,102,2,25,c,1,0.3288533,None,,,,,25,2,102,2,,,,,252.7909045,,252.77708,252.7909045,253.7907965,253.7907965,253.7907965,253.7907965,253.7907965,254.7903459,254.7903459,255.1254324,c,1,0.3288533,None,,,,,,,,,,,,,,,3,1,2025-10-03_15h13.20.269,motorselection,,2025.1.1,59.98663499,2025-10-03 15h15.00.029022 +0530
-150,z,103,3,25,z,1,0.3035012,None,,,,,25,3,103,3,,,,,255.1406397,,255.1268189,255.1406397,256.1405761,256.1405761,256.1405761,256.1405761,256.1405761,257.1404675,257.1404675,257.4584784,z,1,0.3035012,None,,,,,,,,,,,,,,,3,1,2025-10-03_15h13.20.269,motorselection,,2025.1.1,59.98663499,2025-10-03 15h15.00.029022 +0530
-50,x,104,0,26,x,1,0.3406945,None,,,,,26,0,104,0,,,,,257.4737344,,257.4597588,257.4737344,258.4737529,258.4737529,258.4737529,258.4737529,258.4737529,259.4735581,259.4735581,259.824961,x,1,0.3406945,None,,,,,,,,,,,,,,,3,1,2025-10-03_15h13.20.269,motorselection,,2025.1.1,59.98663499,2025-10-03 15h15.00.029022 +0530
150,v,105,1,26,c,0,0.5047095,None,,,,,26,1,105,1,,,,,259.8401552,,259.8262088,259.8401552,260.8400903,260.8400903,260.8400903,260.8400903,260.8400903,261.8399829,261.8399829,262.3577863,c,0,0.5047095,None,,,,,,,,,,,,,,,3,1,2025-10-03_15h13.20.269,motorselection,,2025.1.1,59.98663499,2025-10-03 15h15.00.029022 +0530
50,c,106,2,26,c,1,0.3176229,None,,,,,26,2,106,2,,,,,262.373122,,262.3590141,262.373122,263.3731928,263.3731928,263.3731928,263.3731928,263.3731928,264.3727987,264.3727987,264.7073951,c,1,0.3176229,None,,,,,,,,,,,,,,,3,1,2025-10-03_15h13.20.269,motorselection,,2025.1.1,59.98663499,2025-10-03 15h15.00.029022 +0530
-150,z,107,3,26,z,1,0.7711848,None,,,,,26,3,107,3,,,,,264.723029,,264.708857,264.723029,265.7229783,265.7229783,265.7229783,265.7229783,265.7229783,266.7228862,266.7228862,267.5070436,z,1,0.7711848,None,,,,,,,,,,,,,,,3,1,2025-10-03_15h13.20.269,motorselection,,2025.1.1,59.98663499,2025-10-03 15h15.00.029022 +0530
-50,x,108,0,27,x,1,0.8045443,None,,,,,27,0,108,0,,,,,267.5227645,,267.5082167,267.5227645,268.5226319,268.5226319,268.5226319,268.5226319,268.5226319,269.5225665,269.5225665,270.3405436,x,1,0.8045443,None,,,,,,,,,,,,,,,3,1,2025-10-03_15h13.20.269,motorselection,,2025.1.1,59.98663499,2025-10-03 15h15.00.029022 +0530
150,v,109,1,27,v,1,0.4006999,None,,,,,27,1,109,1,,,,,270.3554418,,270.3418551,270.3554418,271.3556488,271.3556488,271.3556488,271.3556488,271.3556488,272.3554628,272.3554628,272.773538,v,1,0.4006999,None,,,,,,,,,,,,,,,3,1,2025-10-03_15h13.20.269,motorselection,,2025.1.1,59.98663499,2025-10-03 15h15.00.029022 +0530
50,c,110,2,27,c,1,0.5068603,None,,,,,27,2,110,2,,,,,272.7888427,,272.7747331,272.7888427,273.7887449,273.7887449,273.7887449,273.7887449,273.7887449,274.7886647,274.7886647,275.3074933,c,1,0.5068603,None,,,,,,,,,,,,,,,3,1,2025-10-03_15h13.20.269,motorselection,,2025.1.1,59.98663499,2025-10-03 15h15.00.029022 +0530
-150,z,111,3,27,lshift,0,1.093982,None,,,,,27,3,111,3,,,,,275.3218825,,275.3091232,275.3218825,276.3218711,276.3218711,276.3218711,276.3218711,276.3218711,277.3218894,277.3218894,278.4233982,lshift,0,1.093982,None,,,,,,,,,,,,,,,3,1,2025-10-03_15h13.20.269,motorselection,,2025.1.1,59.98663499,2025-10-03 15h15.00.029022 +0530
-50,x,112,0,28,z,0,0.2574732,None,,,,,28,0,112,0,,,,,278.4541651,,278.4248325,278.4541651,279.4381952,279.4381952,279.4381952,279.4381952,279.4547516,280.4379365,280.4379365,280.7061739,z,0,0.2574732,None,,,,,,,,,,,,,,,3,1,2025-10-03_15h13.20.269,motorselection,,2025.1.1,59.98663499,2025-10-03 15h15.00.029022 +0530
150,v,113,1,28,v,1,0.3209131,None,,,,,28,1,113,1,,,,,280.7214195,,280.7074323,280.7214195,281.7214221,281.7214221,281.7214221,281.7214221,281.7214221,282.7212243,282.7212243,283.0561141,v,1,0.3209131,None,,,,,,,,,,,,,,,3,1,2025-10-03_15h13.20.269,motorselection,,2025.1.1,59.98663499,2025-10-03 15h15.00.029022 +0530
50,c,114,2,28,c,1,0.8506077,None,,,,,28,2,114,2,,,,,283.0709777,,283.0575614,283.0709777,284.0711002,284.0711002,284.0711002,284.0711002,284.0711002,285.0709601,285.0709601,285.9385403,c,1,0.8506077,None,,,,,,,,,,,,,,,3,1,2025-10-03_15h13.20.269,motorselection,,2025.1.1,59.98663499,2025-10-03 15h15.00.029022 +0530
-150,z,115,3,28,lshift,0,0.6271683,None,,,,,28,3,115,3,,,,,285.9541156,,285.9397842,285.9541156,286.9541153,286.9541153,286.9541153,286.9541153,286.9541153,287.9540969,287.9540969,288.5888417,lshift,0,0.6271683,None,,,,,,,,,,,,,,,3,1,2025-10-03_15h13.20.269,motorselection,,2025.1.1,59.98663499,2025-10-03 15h15.00.029022 +0530
-50,x,116,0,29,z,0,0.3123432,None,,,,,29,0,116,0,,,,,288.6039665,,288.5901339,288.6039665,289.6037787,289.6037787,289.6037787,289.6037787,289.6037787,290.60381,290.60381,290.9218679,z,0,0.3123432,None,,,,,,,,,,,,,,,3,1,2025-10-03_15h13.20.269,motorselection,,2025.1.1,59.98663499,2025-10-03 15h15.00.029022 +0530
150,v,117,1,29,v,1,0.2812159,None,,,,,29,1,117,1,,,,,290.9370246,,290.9233097,290.9370246,291.9368619,291.9368619,291.9368619,291.9368619,291.9368619,292.9367354,292.9367354,293.2216959,v,1,0.2812159,None,,,,,,,,,,,,,,,3,1,2025-10-03_15h13.20.269,motorselection,,2025.1.1,59.98663499,2025-10-03 15h15.00.029022 +0530
50,c,118,2,29,c,1,0.131543,None,,,,,29,2,118,2,,,,,293.2369112,,293.2232345,293.2369112,294.2365804,294.2365804,294.2365804,294.2365804,294.2365804,295.2366151,295.2366151,295.3715426,c,1,0.131543,None,,,,,,,,,,,,,,,3,1,2025-10-03_15h13.20.269,motorselection,,2025.1.1,59.98663499,2025-10-03 15h15.00.029022 +0530
-150,z,119,3,29,lshift,0,0.0452249,None,,,,,29,3,119,3,,,,,295.3865581,,295.372918,295.3865581,296.3865068,296.3865068,296.3865068,296.3865068,296.3865068,297.3863625,297.3863625,297.4378996,lshift,0,0.0452249,None,,,,,,,,,,,,,,,3,1,2025-10-03_15h13.20.269,motorselection,,2025.1.1,59.98663499,2025-10-03 15h15.00.029022 +0530
-50,x,120,0,30,z,0,0.4745097,None,,,,,30,0,120,0,,,,,297.4530448,,297.4393079,297.4530448,298.4529361,298.4529361,298.4529361,298.4529361,298.4529361,299.4526755,299.4526755,299.937288,z,0,0.4745097,None,,,,,,,,,,,,,,,3,1,2025-10-03_15h13.20.269,motorselection,,2025.1.1,59.98663499,2025-10-03 15h15.00.029022 +0530
150,v,121,1,30,v,1,0.3107646,None,,,,,30,1,121,1,,,,,299.9524584,,299.9384195,299.9524584,300.9528352,300.9528352,300.9528352,300.9528352,300.9528352,301.9525949,301.9525949,302.2708232,v,1,0.3107646,None,,,,,,,,,,,,,,,3,1,2025-10-03_15h13.20.269,motorselection,,2025.1.1,59.98663499,2025-10-03 15h15.00.029022 +0530
50,c,122,2,30,c,1,0.2777684,None,,,,,30,2,122,2,,,,,302.2858676,,302.2722351,302.2858676,303.285698,303.285698,303.285698,303.285698,303.285698,304.2853496,304.2853496,304.5705982,c,1,0.2777684,None,,,,,,,,,,,,,,,3,1,2025-10-03_15h13.20.269,motorselection,,2025.1.1,59.98663499,2025-10-03 15h15.00.029022 +0530
-150,z,123,3,30,lshift,0,0.3712086,None,,,,,30,3,123,3,,,,,304.5855684,,304.5719934,304.5855684,305.5855164,305.5855164,305.5855164,305.5855164,305.5855164,306.5853632,306.5853632,306.970468,lshift,0,0.3712086,None,,,,,,,,,,,,,,,3,1,2025-10-03_15h13.20.269,motorselection,,2025.1.1,59.98663499,2025-10-03 15h15.00.029022 +0530
-50,x,124,0,31,z,0,0.4065775,None,,,,,31,0,124,0,,,,,306.9853178,,306.9718725,306.9853178,307.9845185,307.9845185,307.9845185,307.9845185,307.9845185,308.984543,308.984543,309.4018553,z,0,0.4065775,None,,,,,,,,,,,,,,,3,1,2025-10-03_15h13.20.269,motorselection,,2025.1.1,59.98663499,2025-10-03 15h15.00.029022 +0530
150,v,125,1,31,v,1,0.4470427,None,,,,,31,1,125,1,,,,,309.4177018,,309.402315,309.4177018,310.4009788,310.4009788,310.4009788,310.4009788,310.4178393,311.401016,311.401016,311.8515296,v,1,0.4470427,None,,,,,,,,,,,,,,,3,1,2025-10-03_15h13.20.269,motorselection,,2025.1.1,59.98663499,2025-10-03 15h15.00.029022 +0530
50,c,126,2,31,z,0,0.2845055,None,,,,,31,2,126,2,,,,,311.8673742,,311.8519827,311.8673742,312.8506385,312.8506385,312.8506385,312.8506385,312.8673471,313.8510167,313.8510167,314.1519908,z,0,0.2845055,None,,,,,,,,,,,,,,,3,1,2025-10-03_15h13.20.269,motorselection,,2025.1.1,59.98663499,2025-10-03 15h15.00.029022 +0530
-150,z,127,3,31,z,1,0.3346198,None,,,,,31,3,127,3,,,,,314.1677134,,314.1528039,314.1677134,315.1675915,315.1675915,315.1675915,315.1675915,315.1675915,316.1676887,316.1676887,316.5190009,z,1,0.3346198,None,,,,,,,,,,,,,,,3,1,2025-10-03_15h13.20.269,motorselection,,2025.1.1,59.98663499,2025-10-03 15h15.00.029022 +0530
-50,x,128,0,32,x,1,1.8891738,None,,,,,32,0,128,0,,,,,316.5343769,,316.5200877,316.5343769,317.5343541,317.5343541,317.5343541,317.5343541,317.5343541,318.5341926,318.5341926,320.4352209,x,1,1.8891738,None,,,,,,,,,,,,,,,3,1,2025-10-03_15h13.20.269,motorselection,,2025.1.1,59.98663499,2025-10-03 15h15.00.029022 +0530
150,v,129,1,32,v,1,0.4656964,None,,,,,32,1,129,1,,,,,320.4507052,,320.4363191,320.4507052,321.4506267,321.4506267,321.4506267,321.4506267,321.4506267,322.4505666,322.4505666,322.9186046,v,1,0.4656964,None,,,,,,,,,,,,,,,3,1,2025-10-03_15h13.20.269,motorselection,,2025.1.1,59.98663499,2025-10-03 15h15.00.029022 +0530
50,c,130,2,32,c,1,0.9106747,None,,,,,32,2,130,2,,,,,322.9338755,,322.9201178,322.9338755,323.9337571,323.9337571,323.9337571,323.9337571,323.9337571,324.9336233,324.9336233,325.8513386,c,1,0.9106747,None,,,,,,,,,,,,,,,3,1,2025-10-03_15h13.20.269,motorselection,,2025.1.1,59.98663499,2025-10-03 15h15.00.029022 +0530
-150,z,131,3,32,z,1,0.5272661,None,,,,,32,3,131,3,,,,,325.8667542,,325.8524639,325.8667542,326.8666529,326.8666529,326.8666529,326.8666529,326.8666529,327.8666638,327.8666638,328.4013558,z,1,0.5272661,None,,,,,,,,,,,,,,,3,1,2025-10-03_15h13.20.269,motorselection,,2025.1.1,59.98663499,2025-10-03 15h15.00.029022 +0530
-50,x,132,0,33,x,1,0.6465152,None,,,,,33,0,132,0,,,,,328.4168652,,328.4028338,328.4168652,329.416509,329.416509,329.416509,329.416509,329.416509,330.4164278,330.4164278,331.0679403,x,1,0.6465152,None,,,,,,,,,,,,,,,3,1,2025-10-03_15h13.20.269,motorselection,,2025.1.1,59.98663499,2025-10-03 15h15.00.029022 +0530
150,v,133,1,33,v,1,0.487692,None,,,,,33,1,133,1,,,,,331.083119,,331.0693199,331.083119,332.0829496,332.0829496,332.0829496,332.0829496,332.0829496,333.0827219,333.0827219,333.5843169,v,1,0.487692,None,,,,,,,,,,,,,,,3,1,2025-10-03_15h13.20.269,motorselection,,2025.1.1,59.98663499,2025-10-03 15h15.00.029022 +0530
50,c,134,2,33,c,1,0.3450454,None,,,,,33,2,134,2,,,,,333.5993481,,333.5855479,333.5993481,334.599319,334.599319,334.599319,334.599319,334.599319,335.5994072,335.5994072,335.9506089,c,1,0.3450454,None,,,,,,,,,,,,,,,3,1,2025-10-03_15h13.20.269,motorselection,,2025.1.1,59.98663499,2025-10-03 15h15.00.029022 +0530
-150,z,135,3,33,z,1,0.5941758,None,,,,,33,3,135,3,,,,,335.9657452,,335.9519533,335.9657452,336.965708,336.965708,336.965708,336.965708,336.965708,337.9655586,337.9655586,338.5670894,z,1,0.5941758,None,,,,,,,,,,,,,,,3,1,2025-10-03_15h13.20.269,motorselection,,2025.1.1,59.98663499,2025-10-03 15h15.00.029022 +0530
-50,x,136,0,34,x,1,0.7445452,None,,,,,34,0,136,0,,,,,338.5822798,,338.5685012,338.5822798,339.5822219,339.5822219,339.5822219,339.5822219,339.5822219,340.581921,340.581921,341.3336379,x,1,0.7445452,None,,,,,,,,,,,,,,,3,1,2025-10-03_15h13.20.269,motorselection,,2025.1.1,59.98663499,2025-10-03 15h15.00.029022 +0530
150,v,137,1,34,v,1,0.4424568,None,,,,,34,1,137,1,,,,,341.3485361,,341.3348992,341.3485361,342.3485539,342.3485539,342.3485539,342.3485539,342.3485539,343.3485665,343.3485665,343.8000208,v,1,0.4424568,None,,,,,,,,,,,,,,,3,1,2025-10-03_15h13.20.269,motorselection,,2025.1.1,59.98663499,2025-10-03 15h15.00.029022 +0530
50,c,138,2,34,c,1,0.6562866,None,,,,,34,2,138,2,,,,,343.8149531,,343.8013251,343.8149531,344.8150712,344.8150712,344.8150712,344.8150712,344.8150712,345.8149435,345.8149435,346.4832487,c,1,0.6562866,None,,,,,,,,,,,,,,,3,1,2025-10-03_15h13.20.269,motorselection,,2025.1.1,59.98663499,2025-10-03 15h15.00.029022 +0530
-150,z,139,3,34,z,1,0.7312557,None,,,,,34,3,139,3,,,,,346.4980086,,346.4846297,346.4980086,347.4980695,347.4980695,347.4980695,347.4980695,347.4980695,348.4979273,348.4979273,349.2325037,z,1,0.7312557,None,,,,,,,,,,,,,,,3,1,2025-10-03_15h13.20.269,motorselection,,2025.1.1,59.98663499,2025-10-03 15h15.00.029022 +0530
-50,x,140,0,35,x,1,0.7098684,None,,,,,35,0,140,0,,,,,349.2477732,,349.2339244,349.2477732,350.2477727,350.2477727,350.2477727,350.2477727,350.2477727,351.2475474,351.2475474,351.965767,x,1,0.7098684,None,,,,,,,,,,,,,,,3,1,2025-10-03_15h13.20.269,motorselection,,2025.1.1,59.98663499,2025-10-03 15h15.00.029022 +0530
150,v,141,1,35,v,1,0.5126403,None,,,,,35,1,141,1,,,,,351.9809065,,351.9670941,351.9809065,352.9808152,352.9808152,352.9808152,352.9808152,352.9808152,353.9806944,353.9806944,354.4988996,v,1,0.5126403,None,,,,,,,,,,,,,,,3,1,2025-10-03_15h13.20.269,motorselection,,2025.1.1,59.98663499,2025-10-03 15h15.00.029022 +0530
50,c,142,2,35,c,1,1.4475139,None,,,,,35,2,142,2,,,,,354.5140482,,354.5001615,354.5140482,355.5139297,355.5139297,355.5139297,355.5139297,355.5139297,356.5137464,356.5137464,357.9650693,c,1,1.4475139,None,,,,,,,,,,,,,,,3,1,2025-10-03_15h13.20.269,motorselection,,2025.1.1,59.98663499,2025-10-03 15h15.00.029022 +0530
-150,z,143,3,35,z,1,0.3291991,None,,,,,35,3,143,3,,,,,357.9803106,,357.9666144,357.9803106,358.9802444,358.9802444,358.9802444,358.9802444,358.9802444,359.9801559,359.9801559,360.3147851,z,1,0.3291991,None,,,,,,,,,,,,,,,3,1,2025-10-03_15h13.20.269,motorselection,,2025.1.1,59.98663499,2025-10-03 15h15.00.029022 +0530
-50,x,144,0,36,x,1,0.9214782,None,,,,,36,0,144,0,,,,,360.3300864,,360.3160719,360.3300864,361.3300433,361.3300433,361.3300433,361.3300433,361.3300433,362.3298219,362.3298219,363.2651228,x,1,0.9214782,None,,,,,,,,,,,,,,,3,1,2025-10-03_15h13.20.269,motorselection,,2025.1.1,59.98663499,2025-10-03 15h15.00.029022 +0530
150,v,145,1,36,v,1,0.6933523,None,,,,,36,1,145,1,,,,,363.279478,,363.2669681,363.279478,364.2791618,364.2791618,364.2791618,364.2791618,364.2791618,365.2795062,365.2795062,365.9812529,v,1,0.6933523,None,,,,,,,,,,,,,,,3,1,2025-10-03_15h13.20.269,motorselection,,2025.1.1,59.98663499,2025-10-03 15h15.00.029022 +0530
50,c,146,2,36,c,1,1.470498,None,,,,,36,2,146,2,,,,,365.9960493,,365.9828764,365.9960493,366.9960291,366.9960291,366.9960291,366.9960291,366.9960291,367.9958832,367.9958832,369.4806738,c,1,1.470498,None,,,,,,,,,,,,,,,3,1,2025-10-03_15h13.20.269,motorselection,,2025.1.1,59.98663499,2025-10-03 15h15.00.029022 +0530
-150,z,147,3,36,z,1,2.2813282,None,,,,,36,3,147,3,,,,,369.495731,,369.4819939,369.495731,370.4957002,370.4957002,370.4957002,370.4957002,370.4957002,371.4955469,371.4955469,373.7802614,z,1,2.2813282,None,,,,,,,,,,,,,,,3,1,2025-10-03_15h13.20.269,motorselection,,2025.1.1,59.98663499,2025-10-03 15h15.00.029022 +0530
-50,x,148,0,37,x,1,0.5149156,None,,,,,37,0,148,0,,,,,373.7952509,,373.7816889,373.7952509,374.7951349,374.7951349,374.7951349,374.7951349,374.7951349,375.7951493,375.7951493,376.3134001,x,1,0.5149156,None,,,,,,,,,,,,,,,3,1,2025-10-03_15h13.20.269,motorselection,,2025.1.1,59.98663499,2025-10-03 15h15.00.029022 +0530
150,v,149,1,37,v,1,0.1390061,None,,,,,37,1,149,1,,,,,376.3284853,,376.3149207,376.3284853,377.3281873,377.3281873,377.3281873,377.3281873,377.3281873,378.3283212,378.3283212,378.4797865,v,1,0.1390061,None,,,,,,,,,,,,,,,3,1,2025-10-03_15h13.20.269,motorselection,,2025.1.1,59.98663499,2025-10-03 15h15.00.029022 +0530
50,c,150,2,37,c,1,0.0710368,None,,,,,37,2,150,2,,,,,378.4949241,,378.4812781,378.4949241,379.4950649,379.4950649,379.4950649,379.4950649,379.4950649,380.4946238,380.4946238,380.5796134,c,1,0.0710368,None,,,,,,,,,,,,,,,3,1,2025-10-03_15h13.20.269,motorselection,,2025.1.1,59.98663499,2025-10-03 15h15.00.029022 +0530
-150,z,151,3,37,z,1,0.3979496,None,,,,,37,3,151,3,,,,,380.5947334,,380.5810337,380.5947334,381.5947992,381.5947992,381.5947992,381.5947992,381.5947992,382.5945537,382.5945537,382.995486,z,1,0.3979496,None,,,,,,,,,,,,,,,3,1,2025-10-03_15h13.20.269,motorselection,,2025.1.1,59.98663499,2025-10-03 15h15.00.029022 +0530
-50,x,152,0,38,x,1,1.6344171,None,,,,,38,0,152,0,,,,,383.0109776,,382.9965268,383.0109776,384.0109756,384.0109756,384.0109756,384.0109756,384.0109756,385.0109616,385.0109616,386.6605778,x,1,1.6344171,None,,,,,,,,,,,,,,,3,1,2025-10-03_15h13.20.269,motorselection,,2025.1.1,59.98663499,2025-10-03 15h15.00.029022 +0530
150,v,153,1,38,v,1,0.6463831,None,,,,,38,1,153,1,,,,,386.6765925,,386.6610907,386.6765925,387.660445,387.660445,387.660445,387.660445,387.6767462,388.6600242,388.6600242,389.3106274,v,1,0.6463831,None,,,,,,,,,,,,,,,3,1,2025-10-03_15h13.20.269,motorselection,,2025.1.1,59.98663499,2025-10-03 15h15.00.029022 +0530
50,c,154,2,38,c,1,0.3670336,None,,,,,38,2,154,2,,,,,389.326417,,389.3112464,389.326417,390.3264069,390.3264069,390.3264069,390.3264069,390.3264069,391.3095141,391.3095141,391.6935613,c,1,0.3670336,None,,,,,,,,,,,,,,,3,1,2025-10-03_15h13.20.269,motorselection,,2025.1.1,59.98663499,2025-10-03 15h15.00.029022 +0530
-150,z,155,3,38,z,1,0.3314187,None,,,,,38,3,155,3,,,,,391.709721,,391.6940504,391.709721,392.7093449,392.7093449,392.7093449,392.7093449,392.7093449,393.693196,393.693196,394.0274944,z,1,0.3314187,None,,,,,,,,,,,,,,,3,1,2025-10-03_15h13.20.269,motorselection,,2025.1.1,59.98663499,2025-10-03 15h15.00.029022 +0530
-50,x,156,0,39,x,1,0.3933336,None,,,,,39,0,156,0,,,,,394.0431958,,394.0284115,394.0431958,395.0431689,395.0431689,395.0431689,395.0431689,395.0431689,396.0431591,396.0431591,396.4442743,x,1,0.3933336,None,,,,,,,,,,,,,,,3,1,2025-10-03_15h13.20.269,motorselection,,2025.1.1,59.98663499,2025-10-03 15h15.00.029022 +0530
150,v,157,1,39,v,1,0.4447577,None,,,,,39,1,157,1,,,,,396.4595698,,396.4454243,396.4595698,397.4596767,397.4596767,397.4596767,397.4596767,397.4596767,398.4596583,398.4596583,398.9116395,v,1,0.4447577,None,,,,,,,,,,,,,,,3,1,2025-10-03_15h13.20.269,motorselection,,2025.1.1,59.98663499,2025-10-03 15h15.00.029022 +0530
50,c,158,2,39,c,1,0.4149558,None,,,,,39,2,158,2,,,,,398.9260321,,398.9135598,398.9260321,399.9260632,399.9260632,399.9260632,399.9260632,399.9260632,400.9260289,400.9260289,401.3442765,c,1,0.4149558,None,,,,,,,,,,,,,,,3,1,2025-10-03_15h13.20.269,motorselection,,2025.1.1,59.98663499,2025-10-03 15h15.00.029022 +0530
-150,z,159,3,39,z,1,0.2590504,None,,,,,39,3,159,3,,,,,401.3593381,,401.3455389,401.3593381,402.3592074,402.3592074,402.3592074,402.3592074,402.3592074,403.3591222,403.3591222,403.6269064,z,1,0.2590504,None,,,,,,,,,,,,,,,3,1,2025-10-03_15h13.20.269,motorselection,,2025.1.1,59.98663499,2025-10-03 15h15.00.029022 +0530
-50,x,160,0,40,x,1,0.3344784,None,,,,,40,0,160,0,,,,,403.6425414,,403.6279758,403.6425414,404.6422914,404.6422914,404.6422914,404.6422914,404.6422914,405.642105,405.642105,405.9939838,x,1,0.3344784,None,,,,,,,,,,,,,,,3,1,2025-10-03_15h13.20.269,motorselection,,2025.1.1,59.98663499,2025-10-03 15h15.00.029022 +0530
150,v,161,1,40,v,1,0.4821712,None,,,,,40,1,161,1,,,,,406.0088155,,405.9952686,406.0088155,407.0087622,407.0087622,407.0087622,407.0087622,407.0087622,408.0086145,408.0086145,408.4931173,v,1,0.4821712,None,,,,,,,,,,,,,,,3,1,2025-10-03_15h13.20.269,motorselection,,2025.1.1,59.98663499,2025-10-03 15h15.00.029022 +0530
50,c,162,2,40,c,1,0.369861,None,,,,,40,2,162,2,,,,,408.5085185,,408.4944618,408.5085185,409.508274,409.508274,409.508274,409.508274,409.508274,410.5084052,410.5084052,410.8933361,c,1,0.369861,None,,,,,,,,,,,,,,,3,1,2025-10-03_15h13.20.269,motorselection,,2025.1.1,59.98663499,2025-10-03 15h15.00.029022 +0530
-150,z,163,3,40,z,1,0.2927947,None,,,,,40,3,163,3,,,,,410.908352,,410.8945525,410.908352,411.9082549,411.9082549,411.9082549,411.9082549,411.9082549,412.9081349,412.9081349,413.2096615,z,1,0.2927947,None,,,,,,,,,,,,,,,3,1,2025-10-03_15h13.20.269,motorselection,,2025.1.1,59.98663499,2025-10-03 15h15.00.029022 +0530
-50,x,164,0,41,x,1,0.3069289,None,,,,,41,0,164,0,,,,,413.2247158,,413.2109662,413.2247158,414.2245506,414.2245506,414.2245506,414.2245506,414.2245506,415.224524,415.224524,415.5428406,x,1,0.3069289,None,,,,,,,,,,,,,,,3,1,2025-10-03_15h13.20.269,motorselection,,2025.1.1,59.98663499,2025-10-03 15h15.00.029022 +0530
150,v,165,1,41,v,1,0.4290535,None,,,,,41,1,165,1,,,,,415.557721,,415.5441672,415.557721,416.5577879,416.5577879,416.5577879,416.5577879,416.5577879,417.5575537,417.5575537,417.9926574,v,1,0.4290535,None,,,,,,,,,,,,,,,3,1,2025-10-03_15h13.20.269,motorselection,,2025.1.1,59.98663499,2025-10-03 15h15.00.029022 +0530
50,c,166,2,41,c,1,0.2949935,None,,,,,41,2,166,2,,,,,418.0076557,,417.9940901,418.0076557,419.0073315,419.0073315,419.0073315,419.0073315,419.0073315,420.007363,420.007363,420.3088438,c,1,0.2949935,None,,,,,,,,,,,,,,,3,1,2025-10-03_15h13.20.269,motorselection,,2025.1.1,59.98663499,2025-10-03 15h15.00.029022 +0530
-150,z,167,3,41,z,1,0.641475,None,,,,,41,3,167,3,,,,,420.3241007,,420.3103287,420.3241007,421.3240206,421.3240206,421.3240206,421.3240206,421.3240206,422.323972,422.323972,422.9753791,z,1,0.641475,None,,,,,,,,,,,,,,,3,1,2025-10-03_15h13.20.269,motorselection,,2025.1.1,59.98663499,2025-10-03 15h15.00.029022 +0530
-50,x,168,0,42,x,1,0.6535419,None,,,,,42,0,168,0,,,,,422.9904996,,422.9766427,422.9904996,423.9903725,423.9903725,423.9903725,423.9903725,423.9903725,424.9902735,424.9902735,425.6581727,x,1,0.6535419,None,,,,,,,,,,,,,,,3,1,2025-10-03_15h13.20.269,motorselection,,2025.1.1,59.98663499,2025-10-03 15h15.00.029022 +0530
150,v,169,1,42,v,1,0.4975635,None,,,,,42,1,169,1,,,,,425.6735374,,425.6594333,425.6735374,426.6733268,426.6733268,426.6733268,426.6733268,426.6733268,427.6733449,427.6733449,428.1746844,v,1,0.4975635,None,,,,,,,,,,,,,,,3,1,2025-10-03_15h13.20.269,motorselection,,2025.1.1,59.98663499,2025-10-03 15h15.00.029022 +0530
50,c,170,2,42,c,1,0.3724488,None,,,,,42,2,170,2,,,,,428.189961,,428.1759999,428.189961,429.1898637,429.1898637,429.1898637,429.1898637,429.1898637,430.189765,430.189765,430.5745979,c,1,0.3724488,None,,,,,,,,,,,,,,,3,1,2025-10-03_15h13.20.269,motorselection,,2025.1.1,59.98663499,2025-10-03 15h15.00.029022 +0530
-150,z,171,3,42,z,1,0.5780743,None,,,,,42,3,171,3,,,,,430.5893386,,430.5758858,430.5893386,431.5896109,431.5896109,431.5896109,431.5896109,431.5896109,432.5896124,432.5896124,433.1747138,z,1,0.5780743,None,,,,,,,,,,,,,,,3,1,2025-10-03_15h13.20.269,motorselection,,2025.1.1,59.98663499,2025-10-03 15h15.00.029022 +0530
-50,x,172,0,43,x,1,0.3973131,None,,,,,43,0,172,0,,,,,433.1894379,,433.1769226,433.1894379,434.1893565,434.1893565,434.1893565,434.1893565,434.1893565,435.1892806,435.1892806,435.5905819,x,1,0.3973131,None,,,,,,,,,,,,,,,3,1,2025-10-03_15h13.20.269,motorselection,,2025.1.1,59.98663499,2025-10-03 15h15.00.029022 +0530
150,v,173,1,43,v,1,3.7680631,None,,,,,43,1,173,1,,,,,435.6058186,,435.5919654,435.6058186,436.6057255,436.6057255,436.6057255,436.6057255,436.6057255,437.6055263,437.6055263,441.3909335,v,1,3.7680631,None,,,,,,,,,,,,,,,3,1,2025-10-03_15h13.20.269,motorselection,,2025.1.1,59.98663499,2025-10-03 15h15.00.029022 +0530
50,c,174,2,43,c,1,1.3109171,None,,,,,43,2,174,2,,,,,441.4051831,,441.3929893,441.4051831,442.4044113,442.4044113,442.4044113,442.4044113,442.4044113,443.4044069,443.4044069,444.7214242,c,1,1.3109171,None,,,,,,,,,,,,,,,3,1,2025-10-03_15h13.20.269,motorselection,,2025.1.1,59.98663499,2025-10-03 15h15.00.029022 +0530
-150,z,175,3,43,z,1,0.8311138,None,,,,,43,3,175,3,,,,,444.7376461,,444.721914,444.7376461,445.7206465,445.7206465,445.7206465,445.7206465,445.7372844,446.7205585,446.7205585,447.5542375,z,1,0.8311138,None,,,,,,,,,,,,,,,3,1,2025-10-03_15h13.20.269,motorselection,,2025.1.1,59.98663499,2025-10-03 15h15.00.029022 +0530
-50,x,176,0,44,x,1,0.4112138,None,,,,,44,0,176,0,,,,,447.5707872,,447.5546438,447.5707872,448.5541705,448.5541705,448.5541705,448.5541705,448.5708788,449.5542669,449.5542669,449.9725144,x,1,0.4112138,None,,,,,,,,,,,,,,,3,1,2025-10-03_15h13.20.269,motorselection,,2025.1.1,59.98663499,2025-10-03 15h15.00.029022 +0530
150,v,177,1,44,v,1,0.7097224,None,,,,,44,1,177,1,,,,,449.9876682,,449.973767,449.9876682,450.9874503,450.9874503,450.9874503,450.9874503,450.9874503,451.987463,451.987463,452.7056565,v,1,0.7097224,None,,,,,,,,,,,,,,,3,1,2025-10-03_15h13.20.269,motorselection,,2025.1.1,59.98663499,2025-10-03 15h15.00.029022 +0530
50,c,178,2,44,c,1,0.3751005,None,,,,,44,2,178,2,,,,,452.7207828,,452.706909,452.7207828,453.7208542,453.7208542,453.7208542,453.7208542,453.7208542,454.7205291,454.7205291,455.1065148,c,1,0.3751005,None,,,,,,,,,,,,,,,3,1,2025-10-03_15h13.20.269,motorselection,,2025.1.1,59.98663499,2025-10-03 15h15.00.029022 +0530
-150,z,179,3,44,z,1,0.4096489,None,,,,,44,3,179,3,,,,,455.1204491,,455.1085597,455.1204491,456.1204666,456.1204666,456.1204666,456.1204666,456.1204666,457.1204218,457.1204218,457.5380281,z,1,0.4096489,None,,,,,,,,,,,,,,,3,1,2025-10-03_15h13.20.269,motorselection,,2025.1.1,59.98663499,2025-10-03 15h15.00.029022 +0530
-50,x,180,0,45,x,1,0.4470581,None,,,,,45,0,180,0,,,,,457.5534274,,457.5390984,457.5534274,458.5536571,458.5536571,458.5536571,458.5536571,458.5536571,459.553283,459.553283,460.0049911,x,1,0.4470581,None,,,,,,,,,,,,,,,3,1,2025-10-03_15h13.20.269,motorselection,,2025.1.1,59.98663499,2025-10-03 15h15.00.029022 +0530
150,v,181,1,45,v,1,1.6988264,None,,,,,45,1,181,1,,,,,460.0201304,,460.0063905,460.0201304,461.0200228,461.0200228,461.0200228,461.0200228,461.0200228,462.0198969,462.0198969,463.7212803,v,1,1.6988264,None,,,,,,,,,,,,,,,3,1,2025-10-03_15h13.20.269,motorselection,,2025.1.1,59.98663499,2025-10-03 15h15.00.029022 +0530
50,c,182,2,45,c,1,2.8581527,None,,,,,45,2,182,2,,,,,463.7362532,,463.7226883,463.7362532,464.7362335,464.7362335,464.7362335,464.7362335,464.7362335,465.7361442,465.7361442,468.6044182,c,1,2.8581527,None,,,,,,,,,,,,,,,3,1,2025-10-03_15h13.20.269,motorselection,,2025.1.1,59.98663499,2025-10-03 15h15.00.029022 +0530
-150,z,183,3,45,z,1,1.4693289,None,,,,,45,3,183,3,,,,,468.6191992,,468.6056443,468.6191992,469.6191226,469.6191226,469.6191226,469.6191226,469.6191226,470.6190279,470.6190279,472.1040461,z,1,1.4693289,None,,,,,,,,,,,,,,,3,1,2025-10-03_15h13.20.269,motorselection,,2025.1.1,59.98663499,2025-10-03 15h15.00.029022 +0530
-50,x,184,0,46,x,1,0.7392462,None,,,,,46,0,184,0,,,,,472.1188513,,472.1054796,472.1188513,473.118767,473.118767,473.118767,473.118767,473.118767,474.1185137,474.1185137,474.8700379,x,1,0.7392462,None,,,,,,,,,,,,,,,3,1,2025-10-03_15h13.20.269,motorselection,,2025.1.1,59.98663499,2025-10-03 15h15.00.029022 +0530
150,v,185,1,46,v,1,1.0523667,None,,,,,46,1,185,1,,,,,474.8851256,,474.8714726,474.8851256,475.8851824,475.8851824,475.8851824,475.8851824,475.8851824,476.8850514,476.8850514,477.9531699,v,1,1.0523667,None,,,,,,,,,,,,,,,3,1,2025-10-03_15h13.20.269,motorselection,,2025.1.1,59.98663499,2025-10-03 15h15.00.029022 +0530
50,c,186,2,46,c,1,0.3806492,None,,,,,46,2,186,2,,,,,477.9681763,,477.9544007,477.9681763,478.9681685,478.9681685,478.9681685,478.9681685,478.9681685,479.9680446,479.9680446,480.3527686,c,1,0.3806492,None,,,,,,,,,,,,,,,3,1,2025-10-03_15h13.20.269,motorselection,,2025.1.1,59.98663499,2025-10-03 15h15.00.029022 +0530
-150,z,187,3,46,z,1,2.1648364,None,,,,,46,3,187,3,,,,,480.3680738,,480.3551683,480.3680738,481.3679197,481.3679197,481.3679197,481.3679197,481.3679197,482.3678335,482.3678335,484.5356275,z,1,2.1648364,None,,,,,,,,,,,,,,,3,1,2025-10-03_15h13.20.269,motorselection,,2025.1.1,59.98663499,2025-10-03 15h15.00.029022 +0530
-50,x,188,0,47,x,1,0.5720976,None,,,,,47,0,188,0,,,,,484.5509645,,484.5367279,484.5509645,485.5508607,485.5508607,485.5508607,485.5508607,485.5508607,486.550339,486.550339,487.1355853,x,1,0.5720976,None,,,,,,,,,,,,,,,3,1,2025-10-03_15h13.20.269,motorselection,,2025.1.1,59.98663499,2025-10-03 15h15.00.029022 +0530
150,v,189,1,47,c,0,1.0457423,None,,,,,47,1,189,1,,,,,487.1506931,,487.1368601,487.1506931,488.1506215,488.1506215,488.1506215,488.1506215,488.1506215,489.1504849,489.1504849,490.2016267,c,0,1.0457423,None,,,,,,,,,,,,,,,3,1,2025-10-03_15h13.20.269,motorselection,,2025.1.1,59.98663499,2025-10-03 15h15.00.029022 +0530
50,c,190,2,47,c,1,0.4121512,None,,,,,47,2,190,2,,,,,490.2169914,,490.2028312,490.2169914,491.2169372,491.2169372,491.2169372,491.2169372,491.2169372,492.2167286,492.2167286,492.6348142,c,1,0.4121512,None,,,,,,,,,,,,,,,3,1,2025-10-03_15h13.20.269,motorselection,,2025.1.1,59.98663499,2025-10-03 15h15.00.029022 +0530
-150,z,191,3,47,z,1,0.6528048,None,,,,,47,3,191,3,,,,,492.6501688,,492.6361314,492.6501688,493.6499551,493.6499551,493.6499551,493.6499551,493.6499551,494.6502063,494.6502063,495.3182931,z,1,0.6528048,None,,,,,,,,,,,,,,,3,1,2025-10-03_15h13.20.269,motorselection,,2025.1.1,59.98663499,2025-10-03 15h15.00.029022 +0530
-50,x,192,0,48,x,1,0.7017269,None,,,,,48,0,192,0,,,,,495.3333734,,495.3197352,495.3333734,496.33309,496.33309,496.33309,496.33309,496.33309,497.3329822,497.3329822,498.0509067,x,1,0.7017269,None,,,,,,,,,,,,,,,3,1,2025-10-03_15h13.20.269,motorselection,,2025.1.1,59.98663499,2025-10-03 15h15.00.029022 +0530
150,v,193,1,48,v,1,0.417879,None,,,,,48,1,193,1,,,,,498.0661606,,498.0520062,498.0661606,499.0660906,499.0660906,499.0660906,499.0660906,499.0660906,500.0661163,500.0661163,500.5009205,v,1,0.417879,None,,,,,,,,,,,,,,,3,1,2025-10-03_15h13.20.269,motorselection,,2025.1.1,59.98663499,2025-10-03 15h15.00.029022 +0530
50,c,194,2,48,c,1,0.4162021,None,,,,,48,2,194,2,,,,,500.5159619,,500.502435,500.5159619,501.5158367,501.5158367,501.5158367,501.5158367,501.5158367,502.5156831,502.5156831,502.9342541,c,1,0.4162021,None,,,,,,,,,,,,,,,3,1,2025-10-03_15h13.20.269,motorselection,,2025.1.1,59.98663499,2025-10-03 15h15.00.029022 +0530
-150,z,195,3,48,z,1,0.4482642,None,,,,,48,3,195,3,,,,,502.9491548,,502.9355684,502.9491548,503.9490738,503.9490738,503.9490738,503.9490738,503.9490738,504.9488644,504.9488644,505.4018693,z,1,0.4482642,None,,,,,,,,,,,,,,,3,1,2025-10-03_15h13.20.269,motorselection,,2025.1.1,59.98663499,2025-10-03 15h15.00.029022 +0530
-50,x,196,0,49,x,1,0.4835239,None,,,,,49,0,196,0,,,,,505.4154013,,505.4032686,505.4154013,506.4152563,506.4152563,506.4152563,506.4152563,506.4152563,507.4152092,507.4152092,507.9162529,x,1,0.4835239,None,,,,,,,,,,,,,,,3,1,2025-10-03_15h13.20.269,motorselection,,2025.1.1,59.98663499,2025-10-03 15h15.00.029022 +0530
150,v,197,1,49,v,1,0.3889609,None,,,,,49,1,197,1,,,,,507.9319789,,507.9175192,507.9319789,508.9318405,508.9318405,508.9318405,508.9318405,508.9318405,509.9317962,509.9317962,510.3343136,v,1,0.3889609,None,,,,,,,,,,,,,,,3,1,2025-10-03_15h13.20.269,motorselection,,2025.1.1,59.98663499,2025-10-03 15h15.00.029022 +0530
50,c,198,2,49,c,1,0.2946823,None,,,,,49,2,198,2,,,,,510.3482998,,510.3355785,510.3482998,511.3481682,511.3481682,511.3481682,511.3481682,511.3481682,512.3481802,512.3481802,512.6495737,c,1,0.2946823,None,,,,,,,,,,,,,,,3,1,2025-10-03_15h13.20.269,motorselection,,2025.1.1,59.98663499,2025-10-03 15h15.00.029022 +0530
-150,z,199,3,49,z,1,0.4259744,None,,,,,49,3,199,3,,,,,512.6648159,,512.6508796,512.6648159,513.6645922,513.6645922,513.6645922,513.6645922,513.6645922,514.6646665,514.6646665,515.0993153,z,1,0.4259744,None,,,,,,,,,,,,,,,3,1,2025-10-03_15h13.20.269,motorselection,,2025.1.1,59.98663499,2025-10-03 15h15.00.029022 +0530
150,v,0,0,0,,,,,v,1,0.4536716,None,,,,,0,0,0,1,515.1556552,,,,,,,,,,,,,,,,515.1463989,515.1556552,516.1223077,516.1223077,516.1223077,516.1223077,516.1643781,517.1144419,517.1144419,517.5824837,v,1,0.4536716,None,3,1,2025-10-03_15h13.20.269,motorselection,,2025.1.1,59.98663499,2025-10-03 15h15.00.029022 +0530
-50,x,1,1,0,,,,,x,1,0.527466,None,,,,,0,1,1,0,517.5976556,,,,,,,,,,,,,,,,517.5840047,517.5976556,518.5975089,518.5975089,518.5975089,518.5975089,518.5975089,519.5967221,519.5967221,520.1307924,x,1,0.527466,None,3,1,2025-10-03_15h13.20.269,motorselection,,2025.1.1,59.98663499,2025-10-03 15h15.00.029022 +0530
150,v,2,2,1,,,,,v,1,0.4690538,None,,,,,1,2,2,1,520.1465342,,,,,,,,,,,,,,,,520.1315976,520.1465342,521.1352556,521.1352556,521.1352556,521.1352556,521.1528201,522.1462934,522.1462934,522.6302465,v,1,0.4690538,None,3,1,2025-10-03_15h13.20.269,motorselection,,2025.1.1,59.98663499,2025-10-03 15h15.00.029022 +0530
-50,x,3,3,1,,,,,x,1,1.2744444,None,,,,,1,3,3,0,522.6465047,,,,,,,,,,,,,,,,522.630539,522.6465047,523.6295559,523.6295559,523.6295559,523.6295559,523.6461948,524.6295986,524.6295986,525.913486,x,1,1.2744444,None,3,1,2025-10-03_15h13.20.269,motorselection,,2025.1.1,59.98663499,2025-10-03 15h15.00.029022 +0530
-150,z,4,4,0,,,,,z,1,0.8563817,None,,,,,0,4,4,3,525.9295144,,,,,,,,,,,,,,,,525.9137797,525.9295144,526.9131353,526.9131353,526.9131353,526.9131353,526.9296843,527.9127717,527.9127717,528.7808697,z,1,0.8563817,None,3,1,2025-10-03_15h13.20.269,motorselection,,2025.1.1,59.98663499,2025-10-03 15h15.00.029022 +0530
150,v,5,5,2,,,,,v,1,0.4371103,None,,,,,2,5,5,1,528.79623,,,,,,,,,,,,,,,,528.7819577,528.79623,529.7962638,529.7962638,529.7962638,529.7962638,529.7962638,530.7962443,530.7962443,531.2478194,v,1,0.4371103,None,3,1,2025-10-03_15h13.20.269,motorselection,,2025.1.1,59.98663499,2025-10-03 15h15.00.029022 +0530
50,c,6,6,0,,,,,c,1,0.690765,None,,,,,0,6,6,2,531.262806,,,,,,,,,,,,,,,,531.2490899,531.262806,532.2627326,532.2627326,532.2627326,532.2627326,532.2627326,533.2627515,533.2627515,533.9638516,c,1,0.690765,None,3,1,2025-10-03_15h13.20.269,motorselection,,2025.1.1,59.98663499,2025-10-03 15h15.00.029022 +0530
150,v,7,7,3,,,,,v,1,0.5367104,None,,,,,3,7,7,1,533.9792646,,,,,,,,,,,,,,,,533.9649328,533.9792646,534.9792735,534.9792735,534.9792735,534.9792735,534.9792735,535.9790316,535.9790316,536.5305098,v,1,0.5367104,None,3,1,2025-10-03_15h13.20.269,motorselection,,2025.1.1,59.98663499,2025-10-03 15h15.00.029022 +0530
-150,z,8,8,1,,,,,z,1,0.4055548,None,,,,,1,8,8,3,536.545718,,,,,,,,,,,,,,,,536.5318506,536.545718,537.5454938,537.5454938,537.5454938,537.5454938,537.5454938,538.5454965,538.5454965,538.9638917,z,1,0.4055548,None,3,1,2025-10-03_15h13.20.269,motorselection,,2025.1.1,59.98663499,2025-10-03 15h15.00.029022 +0530
-50,x,9,9,2,,,,,x,1,0.4716618,None,,,,,2,9,9,0,538.9788459,,,,,,,,,,,,,,,,538.9653418,538.9788459,539.9788967,539.9788967,539.9788967,539.9788967,539.9788967,540.978656,540.978656,541.4636842,x,1,0.4716618,None,3,1,2025-10-03_15h13.20.269,motorselection,,2025.1.1,59.98663499,2025-10-03 15h15.00.029022 +0530
-50,x,10,10,3,,,,,x,1,0.4520764,None,,,,,3,10,10,0,541.4785574,,,,,,,,,,,,,,,,541.4651503,541.4785574,542.4787347,542.4787347,542.4787347,542.4787347,542.4787347,543.4783841,543.4783841,543.9463166,x,1,0.4520764,None,3,1,2025-10-03_15h13.20.269,motorselection,,2025.1.1,59.98663499,2025-10-03 15h15.00.029022 +0530
-50,x,11,11,4,,,,,x,1,0.5106703,None,,,,,4,11,11,0,543.9617002,,,,,,,,,,,,,,,,543.9476541,543.9617002,544.9616284,544.9616284,544.9616284,544.9616284,544.9616284,545.9613897,545.9613897,546.4795783,x,1,0.5106703,None,3,1,2025-10-03_15h13.20.269,motorselection,,2025.1.1,59.98663499,2025-10-03 15h15.00.029022 +0530
-150,z,12,12,2,,,,,z,1,0.4126439,None,,,,,2,12,12,3,546.4947432,,,,,,,,,,,,,,,,546.4809273,546.4947432,547.4944758,547.4944758,547.4944758,547.4944758,547.4944758,548.4946757,548.4946757,548.912934,z,1,0.4126439,None,3,1,2025-10-03_15h13.20.269,motorselection,,2025.1.1,59.98663499,2025-10-03 15h15.00.029022 +0530
150,v,13,13,4,,,,,v,1,0.5088381,None,,,,,4,13,13,1,548.9276348,,,,,,,,,,,,,,,,548.9144532,548.9276348,549.9276377,549.9276377,549.9276377,549.9276377,549.9276377,550.9276653,550.9276653,551.4457208,v,1,0.5088381,None,3,1,2025-10-03_15h13.20.269,motorselection,,2025.1.1,59.98663499,2025-10-03 15h15.00.029022 +0530
-150,z,14,14,3,,,,,z,1,0.4133849,None,,,,,3,14,14,3,551.4608401,,,,,,,,,,,,,,,,551.4470675,551.4608401,552.4608128,552.4608128,552.4608128,552.4608128,552.4608128,553.4605569,553.4605569,553.8788188,z,1,0.4133849,None,3,1,2025-10-03_15h13.20.269,motorselection,,2025.1.1,59.98663499,2025-10-03 15h15.00.029022 +0530
-50,x,15,15,5,,,,,x,1,0.4978378,None,,,,,5,15,15,0,553.8939993,,,,,,,,,,,,,,,,553.8802461,553.8939993,554.8938999,554.8938999,554.8938999,554.8938999,554.8938999,555.8937851,555.8937851,556.395225,x,1,0.4978378,None,3,1,2025-10-03_15h13.20.269,motorselection,,2025.1.1,59.98663499,2025-10-03 15h15.00.029022 +0530
-50,x,16,16,6,,,,,x,1,0.3315911,None,,,,,6,16,16,0,556.410396,,,,,,,,,,,,,,,,556.3967856,556.410396,557.4103305,557.4103305,557.4103305,557.4103305,557.4103305,558.410158,558.410158,558.7450817,x,1,0.3315911,None,3,1,2025-10-03_15h13.20.269,motorselection,,2025.1.1,59.98663499,2025-10-03 15h15.00.029022 +0530
-50,x,17,17,7,,,,,x,1,0.3359784,None,,,,,7,17,17,0,558.7601799,,,,,,,,,,,,,,,,558.7463801,558.7601799,559.7600409,559.7600409,559.7600409,559.7600409,559.7600409,560.7600828,560.7600828,561.1106643,x,1,0.3359784,None,3,1,2025-10-03_15h13.20.269,motorselection,,2025.1.1,59.98663499,2025-10-03 15h15.00.029022 +0530
50,c,18,18,1,,,,,c,1,0.6381965,None,,,,,1,18,18,2,561.1261958,,,,,,,,,,,,,,,,561.1115913,561.1261958,562.1264746,562.1264746,562.1264746,562.1264746,562.1264746,563.1263888,563.1263888,563.7776754,c,1,0.6381965,None,3,1,2025-10-03_15h13.20.269,motorselection,,2025.1.1,59.98663499,2025-10-03 15h15.00.029022 +0530
-150,z,19,19,4,,,,,z,1,0.5590658,None,,,,,4,19,19,3,563.7929707,,,,,,,,,,,,,,,,563.7791021,563.7929707,564.7928814,564.7928814,564.7928814,564.7928814,564.7928814,565.7928735,565.7928735,566.3599001,z,1,0.5590658,None,3,1,2025-10-03_15h13.20.269,motorselection,,2025.1.1,59.98663499,2025-10-03 15h15.00.029022 +0530
150,v,20,20,5,,,,,v,1,0.4909634,None,,,,,5,20,20,1,566.3755949,,,,,,,,,,,,,,,,566.3607505,566.3755949,567.3752388,567.3752388,567.3752388,567.3752388,567.3752388,568.3753518,568.3753518,568.8762074,v,1,0.4909634,None,3,1,2025-10-03_15h13.20.269,motorselection,,2025.1.1,59.98663499,2025-10-03 15h15.00.029022 +0530
50,c,21,21,2,,,,,c,1,0.5753565,None,,,,,2,21,21,2,568.8918286,,,,,,,,,,,,,,,,568.876765,568.8918286,569.8915426,569.8915426,569.8915426,569.8915426,569.8915426,570.891587,570.891587,571.4753348,c,1,0.5753565,None,3,1,2025-10-03_15h13.20.269,motorselection,,2025.1.1,59.98663499,2025-10-03 15h15.00.029022 +0530
-150,z,22,22,5,,,,,z,1,0.5233221,None,,,,,5,22,22,3,571.4915551,,,,,,,,,,,,,,,,571.4757273,571.4915551,572.4747726,572.4747726,572.4747726,572.4747726,572.4914364,573.474643,573.474643,574.0092401,z,1,0.5233221,None,3,1,2025-10-03_15h13.20.269,motorselection,,2025.1.1,59.98663499,2025-10-03 15h15.00.029022 +0530
150,v,23,23,6,,,,,v,1,0.7582799,None,,,,,6,23,23,1,574.0250899,,,,,,,,,,,,,,,,574.0101642,574.0250899,575.0248625,575.0248625,575.0248625,575.0248625,575.0248625,576.0249507,576.0249507,576.7925196,v,1,0.7582799,None,3,1,2025-10-03_15h13.20.269,motorselection,,2025.1.1,59.98663499,2025-10-03 15h15.00.029022 +0530
-50,x,24,24,8,,,,,x,1,0.2783085,None,,,,,8,24,24,0,576.8082659,,,,,,,,,,,,,,,,576.7935092,576.8082659,577.8080818,577.8080818,577.8080818,577.8080818,577.8080818,578.8082694,578.8082694,579.0928002,x,1,0.2783085,None,3,1,2025-10-03_15h13.20.269,motorselection,,2025.1.1,59.98663499,2025-10-03 15h15.00.029022 +0530
-50,x,25,25,9,,,,,x,1,0.3701318,None,,,,,9,25,25,0,579.1079975,,,,,,,,,,,,,,,,579.0939087,579.1079975,580.1079194,580.1079194,580.1079194,580.1079194,580.1079194,581.1079187,581.1079187,581.4925604,x,1,0.3701318,None,3,1,2025-10-03_15h13.20.269,motorselection,,2025.1.1,59.98663499,2025-10-03 15h15.00.029022 +0530
-150,z,26,26,6,,,,,z,1,0.3735192,None,,,,,6,26,26,3,581.5078391,,,,,,,,,,,,,,,,581.4940198,581.5078391,582.5077913,582.5077913,582.5077913,582.5077913,582.5077913,583.5076777,583.5076777,583.8927873,z,1,0.3735192,None,3,1,2025-10-03_15h13.20.269,motorselection,,2025.1.1,59.98663499,2025-10-03 15h15.00.029022 +0530
-50,x,27,27,10,,,,,x,1,0.2986762,None,,,,,10,27,27,0,583.9076375,,,,,,,,,,,,,,,,583.8943576,583.9076375,584.9075191,584.9075191,584.9075191,584.9075191,584.9075191,585.9073251,585.9073251,586.2088219,x,1,0.2986762,None,3,1,2025-10-03_15h13.20.269,motorselection,,2025.1.1,59.98663499,2025-10-03 15h15.00.029022 +0530
150,v,28,28,7,,,,,v,1,0.5080963,None,,,,,7,28,28,1,586.2241261,,,,,,,,,,,,,,,,586.2101133,586.2241261,587.2238621,587.2238621,587.2238621,587.2238621,587.2238621,588.2239369,588.2239369,588.7423247,v,1,0.5080963,None,3,1,2025-10-03_15h13.20.269,motorselection,,2025.1.1,59.98663499,2025-10-03 15h15.00.029022 +0530
150,v,29,29,8,,,,,v,1,0.5404261,None,,,,,8,29,29,1,588.7570935,,,,,,,,,,,,,,,,588.7436203,588.7570935,589.757027,589.757027,589.757027,589.757027,589.757027,590.7569095,590.7569095,591.3085157,v,1,0.5404261,None,3,1,2025-10-03_15h13.20.269,motorselection,,2025.1.1,59.98663499,2025-10-03 15h15.00.029022 +0530
-50,x,30,30,11,,,,,x,1,0.6488238,None,,,,,11,30,30,0,591.3236164,,,,,,,,,,,,,,,,591.3099361,591.3236164,592.3234189,592.3234189,592.3234189,592.3234189,592.3234189,593.3231398,593.3231398,593.9747856,x,1,0.6488238,None,3,1,2025-10-03_15h13.20.269,motorselection,,2025.1.1,59.98663499,2025-10-03 15h15.00.029022 +0530
-50,x,31,31,12,,,,,x,1,0.519864,None,,,,,12,31,31,0,593.9899743,,,,,,,,,,,,,,,,593.9760817,593.9899743,594.9898916,594.9898916,594.9898916,594.9898916,594.9898916,595.9898117,595.9898117,596.5241819,x,1,0.519864,None,3,1,2025-10-03_15h13.20.269,motorselection,,2025.1.1,59.98663499,2025-10-03 15h15.00.029022 +0530
-50,x,32,32,13,,,,,x,1,0.9655253,None,,,,,13,32,32,0,596.539149,,,,,,,,,,,,,,,,596.5254433,596.539149,597.5395426,597.5395426,597.5395426,597.5395426,597.5395426,598.5395093,598.5395093,599.5074541,x,1,0.9655253,None,3,1,2025-10-03_15h13.20.269,motorselection,,2025.1.1,59.98663499,2025-10-03 15h15.00.029022 +0530
150,v,33,33,9,,,,,v,1,0.4564474,None,,,,,9,33,33,1,599.5226769,,,,,,,,,,,,,,,,599.5088597,599.5226769,600.5226543,600.5226543,600.5226543,600.5226543,600.5226543,601.5225667,601.5225667,601.9907765,v,1,0.4564474,None,3,1,2025-10-03_15h13.20.269,motorselection,,2025.1.1,59.98663499,2025-10-03 15h15.00.029022 +0530
50,c,34,34,3,,,,,c,1,0.3379633,None,,,,,3,34,34,2,602.0057434,,,,,,,,,,,,,,,,601.9921624,602.0057434,603.0057132,603.0057132,603.0057132,603.0057132,603.0057132,604.0056622,604.0056622,604.3570609,c,1,0.3379633,None,3,1,2025-10-03_15h13.20.269,motorselection,,2025.1.1,59.98663499,2025-10-03 15h15.00.029022 +0530
50,c,35,35,4,,,,,c,1,0.5061488,None,,,,,4,35,35,2,604.3722364,,,,,,,,,,,,,,,,604.3585678,604.3722364,605.3721797,605.3721797,605.3721797,605.3721797,605.3721797,606.3720074,606.3720074,606.8904556,c,1,0.5061488,None,3,1,2025-10-03_15h13.20.269,motorselection,,2025.1.1,59.98663499,2025-10-03 15h15.00.029022 +0530
50,c,36,36,5,,,,,c,1,0.4442347,None,,,,,5,36,36,2,606.9057465,,,,,,,,,,,,,,,,606.8917972,606.9057465,607.9051323,607.9051323,607.9051323,607.9051323,607.9051323,608.9047199,608.9047199,609.3556091,c,1,0.4442347,None,3,1,2025-10-03_15h13.20.269,motorselection,,2025.1.1,59.98663499,2025-10-03 15h15.00.029022 +0530
50,c,37,37,6,,,,,c,1,0.608095,None,,,,,6,37,37,2,609.371276,,,,,,,,,,,,,,,,609.3563362,609.371276,610.3549374,610.3549374,610.3549374,610.3549374,610.3716444,611.3550358,611.3550358,611.9729372,c,1,0.608095,None,3,1,2025-10-03_15h13.20.269,motorselection,,2025.1.1,59.98663499,2025-10-03 15h15.00.029022 +0530
-150,z,38,38,7,,,,,z,1,0.6594917,None,,,,,7,38,38,3,611.9881871,,,,,,,,,,,,,,,,611.974234,611.9881871,612.9880445,612.9880445,612.9880445,612.9880445,612.9880445,613.9879472,613.9879472,614.6561288,z,1,0.6594917,None,3,1,2025-10-03_15h13.20.269,motorselection,,2025.1.1,59.98663499,2025-10-03 15h15.00.029022 +0530
50,c,39,39,7,,,,,c,1,0.3937606,None,,,,,7,39,39,2,614.6711241,,,,,,,,,,,,,,,,614.6574144,614.6711241,615.6714445,615.6714445,615.6714445,615.6714445,615.6714445,616.6710432,616.6710432,617.0728233,c,1,0.3937606,None,3,1,2025-10-03_15h13.20.269,motorselection,,2025.1.1,59.98663499,2025-10-03 15h15.00.029022 +0530
150,v,40,40,10,,,,,v,1,0.3267022,None,,,,,10,40,40,1,617.0875551,,,,,,,,,,,,,,,,617.0742984,617.0875551,618.087547,618.087547,618.087547,618.087547,618.087547,619.0873701,619.0873701,619.4222645,v,1,0.3267022,None,3,1,2025-10-03_15h13.20.269,motorselection,,2025.1.1,59.98663499,2025-10-03 15h15.00.029022 +0530
-150,z,41,41,8,,,,,z,1,0.5280276,None,,,,,8,41,41,3,619.437395,,,,,,,,,,,,,,,,619.4236211,619.437395,620.4372307,620.4372307,620.4372307,620.4372307,620.4372307,621.4371717,621.4371717,621.9720414,z,1,0.5280276,None,3,1,2025-10-03_15h13.20.269,motorselection,,2025.1.1,59.98663499,2025-10-03 15h15.00.029022 +0530
150,v,42,42,11,,,,,v,1,0.5649591,None,,,,,11,42,42,1,621.9870435,,,,,,,,,,,,,,,,621.9733893,621.9870435,622.9871146,622.9871146,622.9871146,622.9871146,622.9871146,623.9869792,623.9869792,624.5551443,v,1,0.5649591,None,3,1,2025-10-03_15h13.20.269,motorselection,,2025.1.1,59.98663499,2025-10-03 15h15.00.029022 +0530
-150,z,43,43,9,,,,,z,1,0.5038565,None,,,,,9,43,43,3,624.5702219,,,,,,,,,,,,,,,,624.5564981,624.5702219,625.5700044,625.5700044,625.5700044,625.5700044,625.5700044,626.570039,626.570039,627.0883679,z,1,0.5038565,None,3,1,2025-10-03_15h13.20.269,motorselection,,2025.1.1,59.98663499,2025-10-03 15h15.00.029022 +0530
50,c,44,44,8,,,,,c,1,0.5927088,None,,,,,8,44,44,2,627.1033183,,,,,,,,,,,,,,,,627.0898614,627.1033183,628.1031566,628.1031566,628.1031566,628.1031566,628.1031566,629.1031036,629.1031036,629.7046179,c,1,0.5927088,None,3,1,2025-10-03_15h13.20.269,motorselection,,2025.1.1,59.98663499,2025-10-03 15h15.00.029022 +0530
-50,x,45,45,14,,,,,x,1,0.4940977,None,,,,,14,45,45,0,629.7197171,,,,,,,,,,,,,,,,629.7059725,629.7197171,630.7194256,630.7194256,630.7194256,630.7194256,630.7194256,631.7196094,631.7196094,632.2206196,x,1,0.4940977,None,3,1,2025-10-03_15h13.20.269,motorselection,,2025.1.1,59.98663499,2025-10-03 15h15.00.029022 +0530
-150,z,46,46,10,,,,,v,0,0.0506704,None,,,,,10,46,46,3,632.2359636,,,,,,,,,,,,,,,,632.2217092,632.2359636,633.235983,633.235983,633.235983,633.235983,633.235983,634.2358671,634.2358671,634.2880945,v,0,0.0506704,None,3,1,2025-10-03_15h13.20.269,motorselection,,2025.1.1,59.98663499,2025-10-03 15h15.00.029022 +0530
50,c,47,47,9,,,,,c,1,0.4894629,None,,,,,9,47,47,2,634.3025902,,,,,,,,,,,,,,,,634.2893856,634.3025902,635.302479,635.302479,635.302479,635.302479,635.302479,636.3023723,636.3023723,636.8038331,c,1,0.4894629,None,3,1,2025-10-03_15h13.20.269,motorselection,,2025.1.1,59.98663499,2025-10-03 15h15.00.029022 +0530
50,c,48,48,10,,,,,c,1,0.7319724,None,,,,,10,48,48,2,636.8189849,,,,,,,,,,,,,,,,636.805151,636.8189849,637.8189182,637.8189182,637.8189182,637.8189182,637.8189182,638.8187898,638.8187898,639.5535305,c,1,0.7319724,None,3,1,2025-10-03_15h13.20.269,motorselection,,2025.1.1,59.98663499,2025-10-03 15h15.00.029022 +0530
-50,x,49,49,15,,,,,x,1,0.5461314,None,,,,,15,49,49,0,639.5687281,,,,,,,,,,,,,,,,639.5549093,639.5687281,640.5687006,640.5687006,640.5687006,640.5687006,640.5687006,641.5685692,641.5685692,642.1198163,x,1,0.5461314,None,3,1,2025-10-03_15h13.20.269,motorselection,,2025.1.1,59.98663499,2025-10-03 15h15.00.029022 +0530
150,v,50,50,12,,,,,v,1,1.4352563,None,,,,,12,50,50,1,642.1350742,,,,,,,,,,,,,,,,642.1211093,642.1350742,643.1349561,643.1349561,643.1349561,643.1349561,643.1349561,644.1348867,644.1348867,645.586275,v,1,1.4352563,None,3,1,2025-10-03_15h13.20.269,motorselection,,2025.1.1,59.98663499,2025-10-03 15h15.00.029022 +0530
150,v,51,51,13,,,,,v,1,0.8415473,None,,,,,13,51,51,1,645.601455,,,,,,,,,,,,,,,,645.5875726,645.601455,646.6013702,646.6013702,646.6013702,646.6013702,646.6013702,647.6012769,647.6012769,648.4527833,v,1,0.8415473,None,3,1,2025-10-03_15h13.20.269,motorselection,,2025.1.1,59.98663499,2025-10-03 15h15.00.029022 +0530
-50,x,52,52,16,,,,,x,1,0.6036892,None,,,,,16,52,52,0,648.4678013,,,,,,,,,,,,,,,,648.4544521,648.4678013,649.467731,649.467731,649.467731,649.467731,649.467731,650.4675213,650.4675213,651.0857852,x,1,0.6036892,None,3,1,2025-10-03_15h13.20.269,motorselection,,2025.1.1,59.98663499,2025-10-03 15h15.00.029022 +0530
50,c,53,53,11,,,,,c,1,0.5105546,None,,,,,11,53,53,2,651.1008728,,,,,,,,,,,,,,,,651.087126,651.1008728,652.1003006,652.1003006,652.1003006,652.1003006,652.1003006,653.1007162,653.1007162,653.619826,c,1,0.5105546,None,3,1,2025-10-03_15h13.20.269,motorselection,,2025.1.1,59.98663499,2025-10-03 15h15.00.029022 +0530
50,c,54,54,12,,,,,c,1,0.7705312,None,,,,,12,54,54,2,653.6338248,,,,,,,,,,,,,,,,653.6219396,653.6338248,654.6337518,654.6337518,654.6337518,654.6337518,654.6337518,655.6337819,655.6337819,656.4185995,c,1,0.7705312,None,3,1,2025-10-03_15h13.20.269,motorselection,,2025.1.1,59.98663499,2025-10-03 15h15.00.029022 +0530
-150,z,55,55,11,,,,,z,1,0.5655201,None,,,,,11,55,55,3,656.4336122,,,,,,,,,,,,,,,,656.4199764,656.4336122,657.4336634,657.4336634,657.4336634,657.4336634,657.4336634,658.4334878,658.4334878,659.0015903,z,1,0.5655201,None,3,1,2025-10-03_15h13.20.269,motorselection,,2025.1.1,59.98663499,2025-10-03 15h15.00.029022 +0530
50,c,56,56,13,,,,,c,1,0.6434124,None,,,,,13,56,56,2,659.0168773,,,,,,,,,,,,,,,,659.0029296,659.0168773,660.0167144,660.0167144,660.0167144,660.0167144,660.0167144,661.0165702,661.0165702,661.6679069,c,1,0.6434124,None,3,1,2025-10-03_15h13.20.269,motorselection,,2025.1.1,59.98663499,2025-10-03 15h15.00.029022 +0530
-150,z,57,57,12,,,,,z,1,1.1605324,None,,,,,12,57,57,3,661.6831574,,,,,,,,,,,,,,,,661.6691942,661.6831574,662.6823633,662.6823633,662.6823633,662.6823633,662.6823633,663.6822872,663.6822872,664.8500897,z,1,1.1605324,None,3,1,2025-10-03_15h13.20.269,motorselection,,2025.1.1,59.98663499,2025-10-03 15h15.00.029022 +0530
50,c,58,58,14,,,,,c,1,0.3860468,None,,,,,14,58,58,2,664.8653396,,,,,,,,,,,,,,,,664.8512357,664.8653396,665.8652382,665.8652382,665.8652382,665.8652382,665.8652382,666.8651636,666.8651636,667.266103,c,1,0.3860468,None,3,1,2025-10-03_15h13.20.269,motorselection,,2025.1.1,59.98663499,2025-10-03 15h15.00.029022 +0530
-150,z,59,59,13,,,,,z,1,0.4808264,None,,,,,13,59,59,3,667.2818872,,,,,,,,,,,,,,,,667.2666907,667.2818872,668.2651523,668.2651523,668.2651523,668.2651523,668.2818351,669.2815569,669.2815569,669.7667639,z,1,0.4808264,None,3,1,2025-10-03_15h13.20.269,motorselection,,2025.1.1,59.98663499,2025-10-03 15h15.00.029022 +0530
-50,x,60,60,17,,,,,x,1,0.3395572,None,,,,,17,60,60,0,669.7819985,,,,,,,,,,,,,,,,669.7683156,669.7819985,670.7821151,670.7821151,670.7821151,670.7821151,670.7821151,671.7819727,671.7819727,672.1334456,x,1,0.3395572,None,3,1,2025-10-03_15h13.20.269,motorselection,,2025.1.1,59.98663499,2025-10-03 15h15.00.029022 +0530
-150,z,61,61,14,,,,,z,1,0.410498,None,,,,,14,61,61,3,672.1487073,,,,,,,,,,,,,,,,672.1346511,672.1487073,673.148601,673.148601,673.148601,673.148601,673.148601,674.1484916,674.1484916,674.5664257,z,1,0.410498,None,3,1,2025-10-03_15h13.20.269,motorselection,,2025.1.1,59.98663499,2025-10-03 15h15.00.029022 +0530
50,c,62,62,15,,,,,c,1,0.5415969,None,,,,,15,62,62,2,674.5826601,,,,,,,,,,,,,,,,674.5677608,674.5826601,675.5818359,675.5818359,675.5818359,675.5818359,675.5818359,676.581598,676.581598,677.1334377,c,1,0.5415969,None,3,1,2025-10-03_15h13.20.269,motorselection,,2025.1.1,59.98663499,2025-10-03 15h15.00.029022 +0530
150,v,63,63,14,,,,,v,1,0.6031098,None,,,,,14,63,63,1,677.148244,,,,,,,,,,,,,,,,677.1347027,677.148244,678.1481606,678.1481606,678.1481606,678.1481606,678.1481606,679.1480627,679.1480627,679.7660942,v,1,0.6031098,None,3,1,2025-10-03_15h13.20.269,motorselection,,2025.1.1,59.98663499,2025-10-03 15h15.00.029022 +0530
-150,z,64,64,15,,,,,z,1,0.4689639,None,,,,,15,64,64,3,679.7813459,,,,,,,,,,,,,,,,679.7674473,679.7813459,680.7812686,680.7812686,680.7812686,680.7812686,680.7812686,681.7811756,681.7811756,682.2661718,z,1,0.4689639,None,3,1,2025-10-03_15h13.20.269,motorselection,,2025.1.1,59.98663499,2025-10-03 15h15.00.029022 +0530
150,v,65,65,15,,,,,v,1,0.63413,None,,,,,15,65,65,1,682.2811171,,,,,,,,,,,,,,,,682.267675,682.2811171,683.2810245,683.2810245,683.2810245,683.2810245,683.2810245,684.2809099,684.2809099,684.932583,v,1,0.63413,None,3,1,2025-10-03_15h13.20.269,motorselection,,2025.1.1,59.98663499,2025-10-03 15h15.00.029022 +0530
-50,x,66,66,18,,,,,x,1,0.8605995,None,,,,,18,66,66,0,684.9474979,,,,,,,,,,,,,,,,684.934039,684.9474979,685.9473654,685.9473654,685.9473654,685.9473654,685.9473654,686.947244,686.947244,687.8153557,x,1,0.8605995,None,3,1,2025-10-03_15h13.20.269,motorselection,,2025.1.1,59.98663499,2025-10-03 15h15.00.029022 +0530
150,v,67,67,16,,,,,v,1,0.8446057,None,,,,,16,67,67,1,687.8305814,,,,,,,,,,,,,,,,687.816726,687.8305814,688.8304461,688.8304461,688.8304461,688.8304461,688.8304461,689.8305108,689.8305108,690.6818689,v,1,0.8446057,None,3,1,2025-10-03_15h13.20.269,motorselection,,2025.1.1,59.98663499,2025-10-03 15h15.00.029022 +0530
50,c,68,68,16,,,,,c,1,0.6530618,None,,,,,16,68,68,2,690.6969098,,,,,,,,,,,,,,,,690.6834884,690.6969098,691.6967066,691.6967066,691.6967066,691.6967066,691.6967066,692.6966489,692.6966489,693.3653582,c,1,0.6530618,None,3,1,2025-10-03_15h13.20.269,motorselection,,2025.1.1,59.98663499,2025-10-03 15h15.00.029022 +0530
-50,x,69,69,19,,,,,x,1,0.435621,None,,,,,19,69,69,0,693.3799076,,,,,,,,,,,,,,,,693.3668035,693.3799076,694.3798056,694.3798056,694.3798056,694.3798056,694.3798056,695.3798113,695.3798113,695.8311826,x,1,0.435621,None,3,1,2025-10-03_15h13.20.269,motorselection,,2025.1.1,59.98663499,2025-10-03 15h15.00.029022 +0530
50,c,70,70,17,,,,,c,1,0.42787,None,,,,,17,70,70,2,695.8462886,,,,,,,,,,,,,,,,695.8325273,695.8462886,696.846279,696.846279,696.846279,696.846279,696.846279,697.8464006,697.8464006,698.2811079,c,1,0.42787,None,3,1,2025-10-03_15h13.20.269,motorselection,,2025.1.1,59.98663499,2025-10-03 15h15.00.029022 +0530
50,c,71,71,18,,,,,c,1,0.5214182,None,,,,,18,71,71,2,698.2959869,,,,,,,,,,,,,,,,698.2828963,698.2959869,699.2959688,699.2959688,699.2959688,699.2959688,699.2959688,700.2960253,700.2960253,700.8308964,c,1,0.5214182,None,3,1,2025-10-03_15h13.20.269,motorselection,,2025.1.1,59.98663499,2025-10-03 15h15.00.029022 +0530
150,v,72,72,17,,,,,v,1,1.9551117,None,,,,,17,72,72,1,700.8459912,,,,,,,,,,,,,,,,700.8327732,700.8459912,701.8456572,701.8456572,701.8456572,701.8456572,701.8456572,702.8454065,702.8454065,704.8139906,v,1,1.9551117,None,3,1,2025-10-03_15h13.20.269,motorselection,,2025.1.1,59.98663499,2025-10-03 15h15.00.029022 +0530
150,v,73,73,18,,,,,v,1,1.0266457,None,,,,,18,73,73,1,704.8288385,,,,,,,,,,,,,,,,704.8153584,704.8288385,705.8286062,705.8286062,705.8286062,705.8286062,705.8286062,706.8286244,706.8286244,707.8635889,v,1,1.0266457,None,3,1,2025-10-03_15h13.20.269,motorselection,,2025.1.1,59.98663499,2025-10-03 15h15.00.029022 +0530
-50,x,74,74,20,,,,,x,1,0.1067722,None,,,,,20,74,74,0,707.8785165,,,,,,,,,,,,,,,,707.8650689,707.8785165,708.878434,708.878434,708.878434,708.878434,708.878434,709.8782368,709.8782368,709.9963322,x,1,0.1067722,None,3,1,2025-10-03_15h13.20.269,motorselection,,2025.1.1,59.98663499,2025-10-03 15h15.00.029022 +0530
-50,x,75,75,21,,,,,x,1,0.4352189,None,,,,,21,75,75,0,710.0115746,,,,,,,,,,,,,,,,709.9976075,710.0115746,711.0115742,711.0115742,711.0115742,711.0115742,711.0115742,712.0114523,712.0114523,712.4630508,x,1,0.4352189,None,3,1,2025-10-03_15h13.20.269,motorselection,,2025.1.1,59.98663499,2025-10-03 15h15.00.029022 +0530
-150,z,76,76,16,,,,,z,1,0.6050699,None,,,,,16,76,76,3,712.4781292,,,,,,,,,,,,,,,,712.4643109,712.4781292,713.4779722,713.4779722,713.4779722,713.4779722,713.4779722,714.4778652,714.4778652,715.0959869,z,1,0.6050699,None,3,1,2025-10-03_15h13.20.269,motorselection,,2025.1.1,59.98663499,2025-10-03 15h15.00.029022 +0530
50,c,77,77,19,,,,,c,1,0.5029516,None,,,,,19,77,77,2,715.1111553,,,,,,,,,,,,,,,,715.0974682,715.1111553,716.1110008,716.1110008,716.1110008,716.1110008,716.1110008,717.1110614,717.1110614,717.6289135,c,1,0.5029516,None,3,1,2025-10-03_15h13.20.269,motorselection,,2025.1.1,59.98663499,2025-10-03 15h15.00.029022 +0530
150,v,78,78,19,,,,,v,1,0.355122,None,,,,,19,78,78,1,717.644245,,,,,,,,,,,,,,,,717.6302529,717.644245,718.644309,718.644309,718.644309,718.644309,718.644309,719.6440726,719.6440726,720.0127465,v,1,0.355122,None,3,1,2025-10-03_15h13.20.269,motorselection,,2025.1.1,59.98663499,2025-10-03 15h15.00.029022 +0530
150,v,79,79,20,,,,,v,1,0.581026,None,,,,,20,79,79,1,720.0269499,,,,,,,,,,,,,,,,720.0141199,720.0269499,721.0272063,721.0272063,721.0272063,721.0272063,721.0272063,722.0270832,722.0270832,722.611337,v,1,0.581026,None,3,1,2025-10-03_15h13.20.269,motorselection,,2025.1.1,59.98663499,2025-10-03 15h15.00.029022 +0530
50,c,80,80,20,,,,,c,1,0.3526082,None,,,,,20,80,80,2,722.6262397,,,,,,,,,,,,,,,,722.6123033,722.6262397,723.6263976,723.6263976,723.6263976,723.6263976,723.6263976,724.626178,724.626178,724.9933695,c,1,0.3526082,None,3,1,2025-10-03_15h13.20.269,motorselection,,2025.1.1,59.98663499,2025-10-03 15h15.00.029022 +0530
-150,z,81,81,17,,,,,z,1,0.4257685,None,,,,,17,81,81,3,725.0092804,,,,,,,,,,,,,,,,724.9938883,725.0092804,726.0091851,726.0091851,726.0091851,726.0091851,726.0091851,726.9926358,726.9926358,727.4268297,z,1,0.4257685,None,3,1,2025-10-03_15h13.20.269,motorselection,,2025.1.1,59.98663499,2025-10-03 15h15.00.029022 +0530
50,c,82,82,21,,,,,c,1,0.355907,None,,,,,21,82,82,2,727.442405,,,,,,,,,,,,,,,,727.4311786,727.442405,728.4424444,728.4424444,728.4424444,728.4424444,728.4424444,729.4259442,729.4259442,729.7937088,c,1,0.355907,None,3,1,2025-10-03_15h13.20.269,motorselection,,2025.1.1,59.98663499,2025-10-03 15h15.00.029022 +0530
150,v,83,83,21,,,,,v,1,0.3930464,None,,,,,21,83,83,1,729.8090369,,,,,,,,,,,,,,,,729.7946523,729.8090369,730.8092064,730.8092064,730.8092064,730.8092064,730.8092064,731.8093185,731.8093185,732.210528,v,1,0.3930464,None,3,1,2025-10-03_15h13.20.269,motorselection,,2025.1.1,59.98663499,2025-10-03 15h15.00.029022 +0530
-50,x,84,84,22,,,,,x,1,1.0824279,None,,,,,22,84,84,0,732.2259123,,,,,,,,,,,,,,,,732.2116965,732.2259123,733.2258383,733.2258383,733.2258383,733.2258383,733.2258383,734.2256206,734.2256206,735.3102144,x,1,1.0824279,None,3,1,2025-10-03_15h13.20.269,motorselection,,2025.1.1,59.98663499,2025-10-03 15h15.00.029022 +0530
50,c,85,85,22,,,,,c,1,0.3311586,None,,,,,22,85,85,2,735.3256711,,,,,,,,,,,,,,,,735.3113145,735.3256711,736.3256713,736.3256713,736.3256713,736.3256713,736.3256713,737.3254359,737.3254359,737.6600801,c,1,0.3311586,None,3,1,2025-10-03_15h13.20.269,motorselection,,2025.1.1,59.98663499,2025-10-03 15h15.00.029022 +0530
150,v,86,86,22,,,,,v,1,0.2697918,None,,,,,22,86,86,1,737.675118,,,,,,,,,,,,,,,,737.6613864,737.675118,738.6753118,738.6753118,738.6753118,738.6753118,738.6753118,739.6752282,739.6752282,739.9602087,v,1,0.2697918,None,3,1,2025-10-03_15h13.20.269,motorselection,,2025.1.1,59.98663499,2025-10-03 15h15.00.029022 +0530
150,v,87,87,23,,,,,v,1,0.4250658,None,,,,,23,87,87,1,739.9751845,,,,,,,,,,,,,,,,739.9615021,739.9751845,740.9751671,740.9751671,740.9751671,740.9751671,740.9751671,741.9750769,741.9750769,742.4099405,v,1,0.4250658,None,3,1,2025-10-03_15h13.20.269,motorselection,,2025.1.1,59.98663499,2025-10-03 15h15.00.029022 +0530
50,c,88,88,23,,,,,c,1,0.3736546,None,,,,,23,88,88,2,742.4250991,,,,,,,,,,,,,,,,742.4112252,742.4250991,743.4251326,743.4251326,743.4251326,743.4251326,743.4251326,744.4246435,744.4246435,744.8097538,c,1,0.3736546,None,3,1,2025-10-03_15h13.20.269,motorselection,,2025.1.1,59.98663499,2025-10-03 15h15.00.029022 +0530
-50,x,89,89,23,,,,,x,1,0.4090322,None,,,,,23,89,89,0,744.824734,,,,,,,,,,,,,,,,744.8111942,744.824734,745.8247268,745.8247268,745.8247268,745.8247268,745.8247268,746.8247313,746.8247313,747.2429813,x,1,0.4090322,None,3,1,2025-10-03_15h13.20.269,motorselection,,2025.1.1,59.98663499,2025-10-03 15h15.00.029022 +0530
-150,z,90,90,18,,,,,x,0,0.5090733,None,,,,,18,90,90,3,747.2579501,,,,,,,,,,,,,,,,747.2444907,747.2579501,748.2578153,748.2578153,748.2578153,748.2578153,748.2578153,749.2577574,749.2577574,749.7757847,x,0,0.5090733,None,3,1,2025-10-03_15h13.20.269,motorselection,,2025.1.1,59.98663499,2025-10-03 15h15.00.029022 +0530
-50,x,91,91,24,,,,,x,1,0.5320906,None,,,,,24,91,91,0,749.7911237,,,,,,,,,,,,,,,,749.7772848,749.7911237,750.7903186,750.7903186,750.7903186,750.7903186,750.7903186,751.7905822,751.7905822,752.3255617,x,1,0.5320906,None,3,1,2025-10-03_15h13.20.269,motorselection,,2025.1.1,59.98663499,2025-10-03 15h15.00.029022 +0530
150,v,92,92,24,,,,,v,1,0.7024518,None,,,,,24,92,92,1,752.3407835,,,,,,,,,,,,,,,,752.3268518,752.3407835,753.3406482,753.3406482,753.3406482,753.3406482,753.3406482,754.3405549,754.3405549,755.058618,v,1,0.7024518,None,3,1,2025-10-03_15h13.20.269,motorselection,,2025.1.1,59.98663499,2025-10-03 15h15.00.029022 +0530
-150,z,93,93,19,,,,,z,1,0.4860045,None,,,,,19,93,93,3,755.0737853,,,,,,,,,,,,,,,,755.0599103,755.0737853,756.073333,756.073333,756.073333,756.073333,756.073333,757.0736263,757.0736263,757.5750832,z,1,0.4860045,None,3,1,2025-10-03_15h13.20.269,motorselection,,2025.1.1,59.98663499,2025-10-03 15h15.00.029022 +0530
50,c,94,94,24,,,,,c,1,0.4240561,None,,,,,24,94,94,2,757.5902186,,,,,,,,,,,,,,,,757.5764602,757.5902186,758.5900968,758.5900968,758.5900968,758.5900968,758.5900968,759.5899545,759.5899545,760.0247838,c,1,0.4240561,None,3,1,2025-10-03_15h13.20.269,motorselection,,2025.1.1,59.98663499,2025-10-03 15h15.00.029022 +0530
-50,x,95,95,25,,,,,x,1,0.7415418,None,,,,,25,95,95,0,760.0399825,,,,,,,,,,,,,,,,760.0260698,760.0399825,761.0398729,761.0398729,761.0398729,761.0398729,761.0398729,762.0400621,762.0400621,762.7912642,x,1,0.7415418,None,3,1,2025-10-03_15h13.20.269,motorselection,,2025.1.1,59.98663499,2025-10-03 15h15.00.029022 +0530
-150,z,96,96,20,,,,,z,1,0.5483018,None,,,,,20,96,96,3,762.8063286,,,,,,,,,,,,,,,,762.7927982,762.8063286,763.8061686,763.8061686,763.8061686,763.8061686,763.8061686,764.8061616,764.8061616,765.3577761,z,1,0.5483018,None,3,1,2025-10-03_15h13.20.269,motorselection,,2025.1.1,59.98663499,2025-10-03 15h15.00.029022 +0530
150,v,97,97,25,,,,,v,1,0.5802139,None,,,,,25,97,97,1,765.3727406,,,,,,,,,,,,,,,,765.3591883,765.3727406,766.3725985,766.3725985,766.3725985,766.3725985,766.3725985,767.3719689,767.3719689,767.9562711,v,1,0.5802139,None,3,1,2025-10-03_15h13.20.269,motorselection,,2025.1.1,59.98663499,2025-10-03 15h15.00.029022 +0530
50,c,98,98,25,,,,,c,1,0.5664855,None,,,,,25,98,98,2,767.97203,,,,,,,,,,,,,,,,767.9571932,767.97203,768.9556424,768.9556424,768.9556424,768.9556424,768.9718897,769.955598,769.955598,770.5237386,c,1,0.5664855,None,3,1,2025-10-03_15h13.20.269,motorselection,,2025.1.1,59.98663499,2025-10-03 15h15.00.029022 +0530
50,c,99,99,26,,,,,c,1,0.5727271,None,,,,,26,99,99,2,770.5387931,,,,,,,,,,,,,,,,770.5248504,770.5387931,771.5388637,771.5388637,771.5388637,771.5388637,771.5388637,772.5387583,772.5387583,773.1236965,c,1,0.5727271,None,3,1,2025-10-03_15h13.20.269,motorselection,,2025.1.1,59.98663499,2025-10-03 15h15.00.029022 +0530
50,c,100,100,27,,,,,x,0,0.4211358,None,,,,,27,100,100,2,773.1386506,,,,,,,,,,,,,,,,773.125198,773.1386506,774.1385593,774.1385593,774.1385593,774.1385593,774.1385593,775.1384546,775.1384546,775.5734605,x,0,0.4211358,None,3,1,2025-10-03_15h13.20.269,motorselection,,2025.1.1,59.98663499,2025-10-03 15h15.00.029022 +0530
-150,z,101,101,21,,,,,z,1,0.4682316,None,,,,,21,101,101,3,775.5883042,,,,,,,,,,,,,,,,775.5750167,775.5883042,776.5883035,776.5883035,776.5883035,776.5883035,776.5883035,777.5881928,777.5881928,778.073248,z,1,0.4682316,None,3,1,2025-10-03_15h13.20.269,motorselection,,2025.1.1,59.98663499,2025-10-03 15h15.00.029022 +0530
-150,z,102,102,22,,,,,z,1,0.8900133,None,,,,,22,102,102,3,778.088055,,,,,,,,,,,,,,,,778.0745704,778.088055,779.088063,779.088063,779.088063,779.088063,779.088063,780.087564,780.087564,780.9893348,z,1,0.8900133,None,3,1,2025-10-03_15h13.20.269,motorselection,,2025.1.1,59.98663499,2025-10-03 15h15.00.029022 +0530
-50,x,103,103,26,,,,,x,1,0.4665695,None,,,,,26,103,103,0,781.0045412,,,,,,,,,,,,,,,,780.9906144,781.0045412,782.0044655,782.0044655,782.0044655,782.0044655,782.0044655,783.0043534,783.0043534,783.4729827,x,1,0.4665695,None,3,1,2025-10-03_15h13.20.269,motorselection,,2025.1.1,59.98663499,2025-10-03 15h15.00.029022 +0530
150,v,104,104,26,,,,,v,1,0.5110293,None,,,,,26,104,104,1,783.4875977,,,,,,,,,,,,,,,,783.4745057,783.4875977,784.4876178,784.4876178,784.4876178,784.4876178,784.4876178,785.4872644,785.4872644,786.0055915,v,1,0.5110293,None,3,1,2025-10-03_15h13.20.269,motorselection,,2025.1.1,59.98663499,2025-10-03 15h15.00.029022 +0530
150,v,105,105,27,,,,,v,1,0.7769037,None,,,,,27,105,105,1,786.0207305,,,,,,,,,,,,,,,,786.0069209,786.0207305,787.0206027,787.0206027,787.0206027,787.0206027,787.0206027,788.0206237,788.0206237,788.8052401,v,1,0.7769037,None,3,1,2025-10-03_15h13.20.269,motorselection,,2025.1.1,59.98663499,2025-10-03 15h15.00.029022 +0530
-150,z,106,106,23,,,,,z,1,0.5836839,None,,,,,23,106,106,3,788.8204974,,,,,,,,,,,,,,,,788.8065512,788.8204974,789.8203427,789.8203427,789.8203427,789.8203427,789.8203427,790.8203093,790.8203093,791.4211371,z,1,0.5836839,None,3,1,2025-10-03_15h13.20.269,motorselection,,2025.1.1,59.98663499,2025-10-03 15h15.00.029022 +0530
50,c,107,107,28,,,,,c,1,0.4129755,None,,,,,28,107,107,2,791.4366852,,,,,,,,,,,,,,,,791.4226566,791.4366852,792.4366405,792.4366405,792.4366405,792.4366405,792.4366405,793.4366486,793.4366486,793.8547054,c,1,0.4129755,None,3,1,2025-10-03_15h13.20.269,motorselection,,2025.1.1,59.98663499,2025-10-03 15h15.00.029022 +0530
50,c,108,108,29,,,,,z,0,0.2535848,None,,,,,29,108,108,2,793.8699003,,,,,,,,,,,,,,,,793.8560077,793.8699003,794.8697966,794.8697966,794.8697966,794.8697966,794.8697966,795.8695754,795.8695754,796.1377658,z,0,0.2535848,None,3,1,2025-10-03_15h13.20.269,motorselection,,2025.1.1,59.98663499,2025-10-03 15h15.00.029022 +0530
-50,x,109,109,27,,,,,x,1,0.7446948,None,,,,,27,109,109,0,796.1531167,,,,,,,,,,,,,,,,796.1391009,796.1531167,797.1528905,797.1528905,797.1528905,797.1528905,797.1528905,798.1528503,798.1528503,798.904356,x,1,0.7446948,None,3,1,2025-10-03_15h13.20.269,motorselection,,2025.1.1,59.98663499,2025-10-03 15h15.00.029022 +0530
50,c,110,110,30,,,,,c,1,0.3842094,None,,,,,30,110,110,2,798.9193607,,,,,,,,,,,,,,,,798.9056569,798.9193607,799.9192698,799.9192698,799.9192698,799.9192698,799.9192698,800.9191762,800.9191762,801.3207949,c,1,0.3842094,None,3,1,2025-10-03_15h13.20.269,motorselection,,2025.1.1,59.98663499,2025-10-03 15h15.00.029022 +0530
50,c,111,111,31,,,,,c,1,0.4603269,None,,,,,31,111,111,2,801.3358061,,,,,,,,,,,,,,,,801.3220807,801.3358061,802.3350318,802.3350318,802.3350318,802.3350318,802.3350318,803.3348213,803.3348213,803.8023173,c,1,0.4603269,None,3,1,2025-10-03_15h13.20.269,motorselection,,2025.1.1,59.98663499,2025-10-03 15h15.00.029022 +0530
-150,z,112,112,24,,,,,z,1,0.4415224,None,,,,,24,112,112,3,803.8181747,,,,,,,,,,,,,,,,803.8028581,803.8181747,804.8013852,804.8013852,804.8013852,804.8013852,804.8179321,805.8178866,805.8178866,806.2693274,z,1,0.4415224,None,3,1,2025-10-03_15h13.20.269,motorselection,,2025.1.1,59.98663499,2025-10-03 15h15.00.029022 +0530
150,v,113,113,28,,,,,v,1,0.404855,None,,,,,28,113,113,1,806.284724,,,,,,,,,,,,,,,,806.2704357,806.284724,807.2846745,807.2846745,807.2846745,807.2846745,807.2846745,808.2844591,808.2844591,808.7015814,v,1,0.404855,None,3,1,2025-10-03_15h13.20.269,motorselection,,2025.1.1,59.98663499,2025-10-03 15h15.00.029022 +0530
150,v,114,114,29,,,,,v,1,0.5167411,None,,,,,29,114,114,1,808.7175103,,,,,,,,,,,,,,,,808.7022094,808.7175103,809.7012839,809.7012839,809.7012839,809.7012839,809.7179471,810.7012465,810.7012465,811.2351058,v,1,0.5167411,None,3,1,2025-10-03_15h13.20.269,motorselection,,2025.1.1,59.98663499,2025-10-03 15h15.00.029022 +0530
