pos,corr_resp,thisN,thisTrialN,thisRepN,key_resp.keys,key_resp.corr,key_resp.rt,key_resp.duration,key_resp_2.keys,key_resp_2.corr,key_resp_2.rt,key_resp_2.duration,seq.thisRepN,seq.thisTrialN,seq.thisN,seq.thisIndex,ran.thisRepN,ran.thisTrialN,ran.thisN,ran.thisIndex,thisRow.t,notes,trial.started,fixation.started,line1.started,line2.started,line3.started,line4.started,fixation.stopped,probe.started,key_resp.started,trial.stopped,seq.key_resp.keys,seq.key_resp.corr,seq.key_resp.rt,seq.key_resp.duration,trial2.started,fixation2.started,lineA.started,lineB.started,lineC.started,lineD.started,fixation2.stopped,probe2.started,key_resp_2.started,trial2.stopped,ran.key_resp_2.keys,ran.key_resp_2.corr,ran.key_resp_2.rt,ran.key_resp_2.duration,participant,session,date,expName,expVersion,psychopyVersion,frameRate,expStart,
-50,x,0,0,0,x,1,0.42892889998620376,None,,,,,0,0,0,0,,,,,0.015891999995801598,,0.011751700018066913,0.015891999995801598,1.006354500015732,1.006354500015732,1.006354500015732,1.006354500015732,1.0220962000312284,2.005548599991016,2.005548599991016,2.4531040000147186,x,1,0.42892889998620376,None,,,,,,,,,,,,,,,04,001,2025-10-03_15h34.13.641,motorselection,,2025.1.1,60.01205041367239,2025-10-03 15h34.27.861727 +0530,
150,v,1,1,0,v,1,0.4404702000319958,None,,,,,0,1,1,1,,,,,2.4591737000155263,,2.45406300004106,2.4591737000155263,3.4555474999942817,3.4555474999942817,3.4555474999942817,3.4555474999942817,3.4718556000152603,4.455623499990907,4.455623499990907,4.906593699997757,v,1,0.4404702000319958,None,,,,,,,,,,,,,,,04,001,2025-10-03_15h34.13.641,motorselection,,2025.1.1,60.01205041367239,2025-10-03 15h34.27.861727 +0530,
50,c,2,2,0,c,1,0.2316277000354603,None,,,,,0,2,2,2,,,,,4.9222011000383645,,4.907546000031289,4.9222011000383645,5.922167000011541,5.922167000011541,5.922167000011541,5.922167000011541,5.922167000011541,6.922054000024218,6.922054000024218,7.156658000021707,c,1,0.2316277000354603,None,,,,,,,,,,,,,,,04,001,2025-10-03_15h34.13.641,motorselection,,2025.1.1,60.01205041367239,2025-10-03 15h34.27.861727 +0530,
-150,z,3,3,0,z,1,0.02051109995227307,None,,,,,0,3,3,3,,,,,7.172042999998666,,7.157735300017521,7.172042999998666,8.171907900017686,8.171907900017686,8.171907900017686,8.171907900017686,8.171907900017686,9.171960400009993,9.171960400009993,9.20667660003528,z,1,0.02051109995227307,None,,,,,,,,,,,,,,,04,001,2025-10-03_15h34.13.641,motorselection,,2025.1.1,60.01205041367239,2025-10-03 15h34.27.861727 +0530,
-50,x,4,0,1,x,1,0.36637860001064837,None,,,,,1,0,4,0,,,,,9.221951899991836,,9.208168200042564,9.221951899991836,10.22183729999233,10.22183729999233,10.22183729999233,10.22183729999233,10.22183729999233,11.22174350003479,11.22174350003479,11.590246200037654,x,1,0.36637860001064837,None,,,,,,,,,,,,,,,04,001,2025-10-03_15h34.13.641,motorselection,,2025.1.1,60.01205041367239,2025-10-03 15h34.27.861727 +0530,
150,v,5,1,1,v,1,0.13883339997846633,None,,,,,1,1,5,1,,,,,11.605107000039425,,11.591697500029113,11.605107000039425,12.60480800003279,12.60480800003279,12.60480800003279,12.60480800003279,12.60480800003279,13.604787799995393,13.604787799995393,13.756316400016658,v,1,0.13883339997846633,None,,,,,,,,,,,,,,,04,001,2025-10-03_15h34.13.641,motorselection,,2025.1.1,60.01205041367239,2025-10-03 15h34.27.861727 +0530,
50,c,6,2,1,c,1,0.8462539000320248,None,,,,,1,2,6,2,,,,,13.771367300010752,,13.757592800015118,13.771367300010752,14.771493800042663,14.771493800042663,14.771493800042663,14.771493800042663,14.771493800042663,15.771291200013366,15.771291200013366,16.62330470001325,c,1,0.8462539000320248,None,,,,,,,,,,,,,,,04,001,2025-10-03_15h34.13.641,motorselection,,2025.1.1,60.01205041367239,2025-10-03 15h34.27.861727 +0530,
-150,z,7,3,1,z,1,0.4263877999619581,None,,,,,1,3,7,3,,,,,16.63760410004761,,16.62470620003296,16.63760410004761,17.637765799998306,17.637765799998306,17.637765799998306,17.637765799998306,17.637765799998306,18.637678200029768,18.637678200029768,19.072659700002987,z,1,0.4263877999619581,None,,,,,,,,,,,,,,,04,001,2025-10-03_15h34.13.641,motorselection,,2025.1.1,60.01205041367239,2025-10-03 15h34.27.861727 +0530,
-50,x,8,0,2,x,1,0.690951100026723,None,,,,,2,0,8,0,,,,,19.087571700045373,,19.07408759999089,19.087571700045373,20.08748640003614,20.08748640003614,20.08748640003614,20.08748640003614,20.08748640003614,21.0865349000087,21.0865349000087,21.787371100042947,x,1,0.690951100026723,None,,,,,,,,,,,,,,,04,001,2025-10-03_15h34.13.641,motorselection,,2025.1.1,60.01205041367239,2025-10-03 15h34.27.861727 +0530,
150,v,9,1,2,v,1,1.3767133000073954,None,,,,,2,1,9,1,,,,,21.80317950004246,,21.78777550003724,21.80317950004246,22.80314209999051,22.80314209999051,22.80314209999051,22.80314209999051,22.80314209999051,23.803122900018934,23.803122900018934,25.194218099990394,v,1,1.3767133000073954,None,,,,,,,,,,,,,,,04,001,2025-10-03_15h34.13.641,motorselection,,2025.1.1,60.01205041367239,2025-10-03 15h34.27.861727 +0530,
50,c,10,2,2,c,1,0.31856529996730387,None,,,,,2,2,10,2,,,,,25.198069900041446,,25.19459359999746,25.198069900041446,26.203170699998736,26.203170699998736,26.203170699998736,26.203170699998736,26.203170699998736,27.20280830003321,27.20280830003321,27.537349099991843,c,1,0.31856529996730387,None,,,,,,,,,,,,,,,04,001,2025-10-03_15h34.13.641,motorselection,,2025.1.1,60.01205041367239,2025-10-03 15h34.27.861727 +0530,
-150,z,11,3,2,z,1,0.30497490003472194,None,,,,,2,3,11,3,,,,,27.5531098000356,,27.53814620000776,27.5531098000356,28.55275100003928,28.55275100003928,28.55275100003928,28.55275100003928,28.55275100003928,29.552733100019395,29.552733100019395,29.870578400033992,z,1,0.30497490003472194,None,,,,,,,,,,,,,,,04,001,2025-10-03_15h34.13.641,motorselection,,2025.1.1,60.01205041367239,2025-10-03 15h34.27.861727 +0530,
-50,x,12,0,3,x,1,0.3352362000150606,None,,,,,3,0,12,0,,,,,29.88609800004633,,29.871486500022,29.88609800004633,30.886346900020726,30.886346900020726,30.886346900020726,30.886346900020726,30.886346900020726,31.886233400029596,31.886233400029596,32.23707000003196,x,1,0.3352362000150606,None,,,,,,,,,,,,,,,04,001,2025-10-03_15h34.13.641,motorselection,,2025.1.1,60.01205041367239,2025-10-03 15h34.27.861727 +0530,
150,v,13,1,3,v,1,0.14080910000484437,None,,,,,3,1,13,1,,,,,32.25278440001421,,32.23813730000984,32.25278440001421,33.23618050001096,33.23618050001096,33.23618050001096,33.23618050001096,33.252776800014544,34.25266749999719,34.25266749999719,34.40408080001362,v,1,0.14080910000484437,None,,,,,,,,,,,,,,,04,001,2025-10-03_15h34.13.641,motorselection,,2025.1.1,60.01205041367239,2025-10-03 15h34.27.861727 +0530,
50,c,14,2,3,c,1,0.2805586000322364,None,,,,,3,2,14,2,,,,,34.41936749999877,,34.405422000039835,34.41936749999877,35.419210500025656,35.419210500025656,35.419210500025656,35.419210500025656,35.419210500025656,36.41925939999055,36.41925939999055,36.703970100032166,c,1,0.2805586000322364,None,,,,,,,,,,,,,,,04,001,2025-10-03_15h34.13.641,motorselection,,2025.1.1,60.01205041367239,2025-10-03 15h34.27.861727 +0530,
-150,z,15,3,3,z,1,0.35861100000329316,None,,,,,3,3,15,3,,,,,36.71917699999176,,36.705201100034174,36.71917699999176,37.719019400014076,37.719019400014076,37.719019400014076,37.719019400014076,37.719019400014076,38.718973400013056,38.718973400013056,39.08713350002654,z,1,0.35861100000329316,None,,,,,,,,,,,,,,,04,001,2025-10-03_15h34.13.641,motorselection,,2025.1.1,60.01205041367239,2025-10-03 15h34.27.861727 +0530,
-50,x,16,0,4,x,1,1.2541104999836534,None,,,,,4,0,16,0,,,,,39.10216940002283,,39.0885566000361,39.10216940002283,40.10218129999703,40.10218129999703,40.10218129999703,40.10218129999703,40.10218129999703,41.10199769999599,41.10199769999599,42.3697652000119,x,1,1.2541104999836534,None,,,,,,,,,,,,,,,04,001,2025-10-03_15h34.13.641,motorselection,,2025.1.1,60.01205041367239,2025-10-03 15h34.27.861727 +0530,
150,v,17,1,4,v,1,0.5898921000189148,None,,,,,4,1,17,1,,,,,42.38511050003581,,42.37100440001814,42.38511050003581,43.38515740004368,43.38515740004368,43.38515740004368,43.38515740004368,43.38515740004368,44.38502610003343,44.38502610003343,44.98649949999526,v,1,0.5898921000189148,None,,,,,,,,,,,,,,,04,001,2025-10-03_15h34.13.641,motorselection,,2025.1.1,60.01205041367239,2025-10-03 15h34.27.861727 +0530,
50,c,18,2,4,c,1,0.5009503000183031,None,,,,,4,2,18,2,,,,,45.001616100023966,,44.98783920001006,45.001616100023966,46.0015547000221,46.0015547000221,46.0015547000221,46.0015547000221,46.0015547000221,47.00134140002774,47.00134140002774,47.51979220000794,c,1,0.5009503000183031,None,,,,,,,,,,,,,,,04,001,2025-10-03_15h34.13.641,motorselection,,2025.1.1,60.01205041367239,2025-10-03 15h34.27.861727 +0530,
-150,z,19,3,4,z,1,1.1457745999796316,None,,,,,4,3,19,3,,,,,47.5347185000428,,47.52127309999196,47.5347185000428,48.53461319999769,48.53461319999769,48.53461319999769,48.53461319999769,48.53461319999769,49.534451899991836,49.534451899991836,50.685805100016296,z,1,1.1457745999796316,None,,,,,,,,,,,,,,,04,001,2025-10-03_15h34.13.641,motorselection,,2025.1.1,60.01205041367239,2025-10-03 15h34.27.861727 +0530,
-50,x,20,0,5,x,1,0.23725119995651767,None,,,,,5,0,20,0,,,,,50.70110210002167,,50.68708850000985,50.70110210002167,51.70109540002886,51.70109540002886,51.70109540002886,51.70109540002886,51.70109540002886,52.70091220003087,52.70091220003087,52.95249530003639,x,1,0.23725119995651767,None,,,,,,,,,,,,,,,04,001,2025-10-03_15h34.13.641,motorselection,,2025.1.1,60.01205041367239,2025-10-03 15h34.27.861727 +0530,
150,v,21,1,5,v,1,0.29696760000661016,None,,,,,5,1,21,1,,,,,52.96748450002633,,52.953731400019024,52.96748450002633,53.96742150001228,53.96742150001228,53.96742150001228,53.96742150001228,53.96742150001228,54.967317900038324,54.967317900038324,55.26878720003879,v,1,0.29696760000661016,None,,,,,,,,,,,,,,,04,001,2025-10-03_15h34.13.641,motorselection,,2025.1.1,60.01205041367239,2025-10-03 15h34.27.861727 +0530,
50,c,22,2,5,c,1,0.1206188999931328,None,,,,,5,2,22,2,,,,,55.2839374000323,,55.27041110000573,55.2839374000323,56.28385160001926,56.28385160001926,56.28385160001926,56.28385160001926,56.28385160001926,57.28374800004531,57.28374800004531,57.41866590001155,c,1,0.1206188999931328,None,,,,,,,,,,,,,,,04,001,2025-10-03_15h34.13.641,motorselection,,2025.1.1,60.01205041367239,2025-10-03 15h34.27.861727 +0530,
-150,z,23,3,5,z,1,0.5436697999830358,None,,,,,5,3,23,3,,,,,57.433727900031954,,57.41994390002219,57.433727900031954,58.43356390000554,58.43356390000554,58.43356390000554,58.43356390000554,58.43356390000554,59.43349730002228,59.43349730002228,59.98513919999823,z,1,0.5436697999830358,None,,,,,,,,,,,,,,,04,001,2025-10-03_15h34.13.641,motorselection,,2025.1.1,60.01205041367239,2025-10-03 15h34.27.861727 +0530,
-50,x,24,0,6,x,1,0.5123715999652632,None,,,,,6,0,24,0,,,,,60.00008860003436,,59.98654820001684,60.00008860003436,61.00005880004028,61.00005880004028,61.00005880004028,61.00005880004028,61.00005880004028,61.99946640001144,61.99946640001144,62.51807290001307,x,1,0.5123715999652632,None,,,,,,,,,,,,,,,04,001,2025-10-03_15h34.13.641,motorselection,,2025.1.1,60.01205041367239,2025-10-03 15h34.27.861727 +0530,
150,v,25,1,6,v,1,0.569813400041312,None,,,,,6,1,25,1,,,,,62.53314670000691,,62.519361999991816,62.53314670000691,63.533136300044134,63.533136300044134,63.533136300044134,63.533136300044134,63.533136300044134,64.532951900037,64.532951900037,65.11779300001217,v,1,0.569813400041312,None,,,,,,,,,,,,,,,04,001,2025-10-03_15h34.13.641,motorselection,,2025.1.1,60.01205041367239,2025-10-03 15h34.27.861727 +0530,
50,c,26,2,6,c,1,0.40609290002612397,None,,,,,6,2,26,2,,,,,65.13281810004264,,65.11911860003602,65.13281810004264,66.13281100004679,66.13281100004679,66.13281100004679,66.13281100004679,66.13281100004679,67.1327278999961,67.1327278999961,67.55111780000152,c,1,0.40609290002612397,None,,,,,,,,,,,,,,,04,001,2025-10-03_15h34.13.641,motorselection,,2025.1.1,60.01205041367239,2025-10-03 15h34.27.861727 +0530,
-150,z,27,3,6,z,1,0.7140066999709234,None,,,,,6,3,27,3,,,,,67.56607900001109,,67.5526627000072,67.56607900001109,68.56587789999321,68.56587789999321,68.56587789999321,68.56587789999321,68.56587789999321,69.5658856999944,69.5658856999944,70.28396940004313,z,1,0.7140066999709234,None,,,,,,,,,,,,,,,04,001,2025-10-03_15h34.13.641,motorselection,,2025.1.1,60.01205041367239,2025-10-03 15h34.27.861727 +0530,
-50,x,28,0,7,x,1,0.3984896999900229,None,,,,,7,0,28,0,,,,,70.29898300004425,,70.28520919999573,70.29898300004425,71.2990315000061,71.2990315000061,71.2990315000061,71.2990315000061,71.2990315000061,72.29888710001251,72.29888710001251,72.70018899999559,x,1,0.3984896999900229,None,,,,,,,,,,,,,,,04,001,2025-10-03_15h34.13.641,motorselection,,2025.1.1,60.01205041367239,2025-10-03 15h34.27.861727 +0530,
150,v,29,1,7,v,1,1.3954120999551378,None,,,,,7,1,29,1,,,,,72.71551400003955,,72.70144080003956,72.71551400003955,73.71550890000071,73.71550890000071,73.71550890000071,73.71550890000071,73.71550890000071,74.7153273000149,74.7153273000149,76.11656380002387,v,1,1.3954120999551378,None,,,,,,,,,,,,,,,04,001,2025-10-03_15h34.13.641,motorselection,,2025.1.1,60.01205041367239,2025-10-03 15h34.27.861727 +0530,
50,c,30,2,7,c,1,0.3556309000123292,None,,,,,7,2,30,2,,,,,76.13180470000952,,76.1179399000248,76.13180470000952,77.13164169999072,77.13164169999072,77.13164169999072,77.13164169999072,77.13164169999072,78.1319825000246,78.1319825000246,78.49993119999999,c,1,0.3556309000123292,None,,,,,,,,,,,,,,,04,001,2025-10-03_15h34.13.641,motorselection,,2025.1.1,60.01205041367239,2025-10-03 15h34.27.861727 +0530,
-150,z,31,3,7,c,0,0.6705439999932423,None,,,,,7,3,31,3,,,,,78.51495390001219,,78.50132680003298,78.51495390001219,79.5148434000439,79.5148434000439,79.5148434000439,79.5148434000439,79.5148434000439,80.51473930000793,80.51473930000793,81.19970540003851,c,0,0.6705439999932423,None,,,,,,,,,,,,,,,04,001,2025-10-03_15h34.13.641,motorselection,,2025.1.1,60.01205041367239,2025-10-03 15h34.27.861727 +0530,
-50,x,32,0,8,x,1,0.7613363999989815,None,,,,,8,0,32,0,,,,,81.21471410000231,,81.20113320002565,81.21471410000231,82.21471910004038,82.21471910004038,82.21471910004038,82.21471910004038,82.21471910004038,83.21451250003884,83.21451250003884,83.98233930004062,x,1,0.7613363999989815,None,,,,,,,,,,,,,,,04,001,2025-10-03_15h34.13.641,motorselection,,2025.1.1,60.01205041367239,2025-10-03 15h34.27.861727 +0530,
150,v,33,1,8,v,1,1.9147163999732584,None,,,,,8,1,33,1,,,,,83.99765680002747,,83.9837683000369,83.99765680002747,84.99765170004684,84.99765170004684,84.99765170004684,84.99765170004684,84.99765170004684,85.9975376999937,85.9975376999937,87.91588300000876,v,1,1.9147163999732584,None,,,,,,,,,,,,,,,04,001,2025-10-03_15h34.13.641,motorselection,,2025.1.1,60.01205041367239,2025-10-03 15h34.27.861727 +0530,
50,c,34,2,8,c,1,1.989568800025154,None,,,,,8,2,34,2,,,,,87.93067420000443,,87.91738500003703,87.93067420000443,88.93049820000306,88.93049820000306,88.93049820000306,88.93049820000306,88.93049820000306,89.93050860002404,89.93050860002404,91.93201670004055,c,1,1.989568800025154,None,,,,,,,,,,,,,,,04,001,2025-10-03_15h34.13.641,motorselection,,2025.1.1,60.01205041367239,2025-10-03 15h34.27.861727 +0530,
-150,z,35,3,8,z,1,0.8189697000198066,None,,,,,8,3,35,3,,,,,91.94679670000914,,91.93343219999224,91.94679670000914,92.94698150001932,92.94698150001932,92.94698150001932,92.94698150001932,92.94698150001932,93.94674980000127,93.94674980000127,94.78174820001004,z,1,0.8189697000198066,None,,,,,,,,,,,,,,,04,001,2025-10-03_15h34.13.641,motorselection,,2025.1.1,60.01205041367239,2025-10-03 15h34.27.861727 +0530,
-50,x,36,0,9,x,1,0.8359009000123478,None,,,,,9,0,36,0,,,,,94.79657870001392,,94.78324260003865,94.79657870001392,95.79645710001932,95.79645710001932,95.79645710001932,95.79645710001932,95.79645710001932,96.79633099999046,96.79633099999046,97.64958230004413,x,1,0.8359009000123478,None,,,,,,,,,,,,,,,04,001,2025-10-03_15h34.13.641,motorselection,,2025.1.1,60.01205041367239,2025-10-03 15h34.27.861727 +0530,
150,v,37,1,9,v,1,0.4083286999957636,None,,,,,9,1,37,1,,,,,97.66264890000457,,97.6510245000245,97.66264890000457,98.66213230002904,98.66213230002904,98.66213230002904,98.66213230002904,98.66213230002904,99.66225670004496,99.66225670004496,100.07903320004698,v,1,0.4083286999957636,None,,,,,,,,,,,,,,,04,001,2025-10-03_15h34.13.641,motorselection,,2025.1.1,60.01205041367239,2025-10-03 15h34.27.861727 +0530,
50,c,38,2,9,c,1,1.347108100017067,None,,,,,9,2,38,2,,,,,100.09526970004663,,100.07935010001529,100.09526970004663,101.07861780002713,101.07861780002713,101.07861780002713,101.07861780002713,101.09532730001956,102.07844020001357,102.07844020001357,103.42944490001537,c,1,1.347108100017067,None,,,,,,,,,,,,,,,04,001,2025-10-03_15h34.13.641,motorselection,,2025.1.1,60.01205041367239,2025-10-03 15h34.27.861727 +0530,
-150,z,39,3,9,z,1,0.5541705999639817,None,,,,,9,3,39,3,,,,,103.44512889999896,,103.4301408000174,103.44512889999896,104.44521770003485,104.44521770003485,104.44521770003485,104.44521770003485,104.44521770003485,105.42849720001686,105.42849720001686,105.9963543000049,z,1,0.5541705999639817,None,,,,,,,,,,,,,,,04,001,2025-10-03_15h34.13.641,motorselection,,2025.1.1,60.01205041367239,2025-10-03 15h34.27.861727 +0530,
-50,x,40,0,10,x,1,0.38586310000391677,None,,,,,10,0,40,0,,,,,106.01191010000184,,105.99724100000458,106.01191010000184,107.01171510003041,107.01171510003041,107.01171510003041,107.01171510003041,107.01171510003041,108.01184150000336,108.01184150000336,108.41323619999457,x,1,0.38586310000391677,None,,,,,,,,,,,,,,,04,001,2025-10-03_15h34.13.641,motorselection,,2025.1.1,60.01205041367239,2025-10-03 15h34.27.861727 +0530,
150,v,41,1,10,v,1,0.26241200004005805,None,,,,,10,1,41,1,,,,,108.42855930002406,,108.41442470002221,108.42855930002406,109.42854019999504,109.42854019999504,109.42854019999504,109.42854019999504,109.42854019999504,110.42833550000796,110.42833550000796,110.69708290003473,v,1,0.26241200004005805,None,,,,,,,,,,,,,,,04,001,2025-10-03_15h34.13.641,motorselection,,2025.1.1,60.01205041367239,2025-10-03 15h34.27.861727 +0530,
50,c,42,2,10,c,1,0.5851974000106566,None,,,,,10,2,42,2,,,,,110.71159250003984,,110.6985621000058,110.71159250003984,111.71151690004626,111.71151690004626,111.71151690004626,111.71151690004626,111.71151690004626,112.71134560002247,112.71134560002247,113.31296720000682,c,1,0.5851974000106566,None,,,,,,,,,,,,,,,04,001,2025-10-03_15h34.13.641,motorselection,,2025.1.1,60.01205041367239,2025-10-03 15h34.27.861727 +0530,
-150,z,43,3,10,z,1,0.3537979000248015,None,,,,,10,3,43,3,,,,,113.32817789999535,,113.31444099999499,113.32817789999535,114.32812900003046,114.32812900003046,114.32812900003046,114.32812900003046,114.32812900003046,115.32779539999319,115.32779539999319,115.69615670002531,z,1,0.3537979000248015,None,,,,,,,,,,,,,,,04,001,2025-10-03_15h34.13.641,motorselection,,2025.1.1,60.01205041367239,2025-10-03 15h34.27.861727 +0530,
-50,x,44,0,11,x,1,0.3983571999706328,None,,,,,11,0,44,0,,,,,115.71124989999225,,115.69827620004071,115.71124989999225,116.71056460001273,116.71056460001273,116.71056460001273,116.71056460001273,116.71056460001273,117.71100900002057,117.71100900002057,118.11187880003126,x,1,0.3983571999706328,None,,,,,,,,,,,,,,,04,001,2025-10-03_15h34.13.641,motorselection,,2025.1.1,60.01205041367239,2025-10-03 15h34.27.861727 +0530,
150,v,45,1,11,v,1,0.32230699999490753,None,,,,,11,1,45,1,,,,,118.12725310004316,,118.11311510001542,118.12725310004316,119.1274010000052,119.1274010000052,119.1274010000052,119.1274010000052,119.1274010000052,120.12741090002237,120.12741090002237,120.46200620004674,v,1,0.32230699999490753,None,,,,,,,,,,,,,,,04,001,2025-10-03_15h34.13.641,motorselection,,2025.1.1,60.01205041367239,2025-10-03 15h34.27.861727 +0530,
50,c,46,2,11,c,1,0.40038449998246506,None,,,,,11,2,46,2,,,,,120.47730980004417,,120.46318459999748,120.47730980004417,121.47755330003565,121.47755330003565,121.47755330003565,121.47755330003565,121.47755330003565,122.47720200003823,122.47720200003823,122.89604910003254,c,1,0.40038449998246506,None,,,,,,,,,,,,,,,04,001,2025-10-03_15h34.13.641,motorselection,,2025.1.1,60.01205041367239,2025-10-03 15h34.27.861727 +0530,
-150,z,47,3,11,z,1,0.8977482000482269,None,,,,,11,3,47,3,,,,,122.91032500000438,,122.89755700004753,122.91032500000438,123.91038180002943,123.91038180002943,123.91038180002943,123.91038180002943,123.91038180002943,124.91029379999964,124.91029379999964,125.81126220000442,z,1,0.8977482000482269,None,,,,,,,,,,,,,,,04,001,2025-10-03_15h34.13.641,motorselection,,2025.1.1,60.01205041367239,2025-10-03 15h34.27.861727 +0530,
-50,x,48,0,12,x,1,0.33159019995946437,None,,,,,12,0,48,0,,,,,125.82712279999396,,125.81258610001532,125.82712279999396,126.8260728000314,126.8260728000314,126.8260728000314,126.8260728000314,126.84262579999631,127.82656350004254,127.82656350004254,128.161300900043,x,1,0.33159019995946437,None,,,,,,,,,,,,,,,04,001,2025-10-03_15h34.13.641,motorselection,,2025.1.1,60.01205041367239,2025-10-03 15h34.27.861727 +0530,
150,v,49,1,12,v,1,0.23978810000699013,None,,,,,12,1,49,1,,,,,128.17663500003982,,128.16254779999144,128.17663500003982,129.17652520001866,129.17652520001866,129.17652520001866,129.17652520001866,129.17652520001866,130.17639979999512,130.17639979999512,130.42849419999402,v,1,0.23978810000699013,None,,,,,,,,,,,,,,,04,001,2025-10-03_15h34.13.641,motorselection,,2025.1.1,60.01205041367239,2025-10-03 15h34.27.861727 +0530,
50,c,50,2,12,c,1,0.2126200000056997,None,,,,,12,2,50,2,,,,,130.44278440001654,,130.43032430001767,130.44278440001654,131.44283320003888,131.44283320003888,131.44283320003888,131.44283320003888,131.44283320003888,132.44286070001544,132.44286070001544,132.66115380002884,c,1,0.2126200000056997,None,,,,,,,,,,,,,,,04,001,2025-10-03_15h34.13.641,motorselection,,2025.1.1,60.01205041367239,2025-10-03 15h34.27.861727 +0530,
-150,z,51,3,12,z,1,0.28216609999071807,None,,,,,12,3,51,3,,,,,132.67622050002683,,132.66255920002004,132.67622050002683,133.67612990003545,133.67612990003545,133.67612990003545,133.67612990003545,133.67612990003545,134.67609210003866,134.67609210003866,134.96091200003866,z,1,0.28216609999071807,None,,,,,,,,,,,,,,,04,001,2025-10-03_15h34.13.641,motorselection,,2025.1.1,60.01205041367239,2025-10-03 15h34.27.861727 +0530,
-50,x,52,0,13,x,1,0.3529227999970317,None,,,,,13,0,52,0,,,,,134.9758962999913,,134.96215820004,134.9758962999913,135.97584930004086,135.97584930004086,135.97584930004086,135.97584930004086,135.97584930004086,136.9757752000005,136.9757752000005,137.34388520003995,x,1,0.3529227999970317,None,,,,,,,,,,,,,,,04,001,2025-10-03_15h34.13.641,motorselection,,2025.1.1,60.01205041367239,2025-10-03 15h34.27.861727 +0530,
150,v,53,1,13,v,1,0.6643481000210159,None,,,,,13,1,53,1,,,,,137.3590525999898,,137.34517280000728,137.3590525999898,138.3589515000349,138.3589515000349,138.3589515000349,138.3589515000349,138.3589515000349,139.3589307999937,139.3589307999937,140.0270506000379,v,1,0.6643481000210159,None,,,,,,,,,,,,,,,04,001,2025-10-03_15h34.13.641,motorselection,,2025.1.1,60.01205041367239,2025-10-03 15h34.27.861727 +0530,
50,c,54,2,13,c,1,0.37672709999606013,None,,,,,13,2,54,2,,,,,140.04191430000355,,140.02851730003022,140.04191430000355,141.04206850001356,141.04206850001356,141.04206850001356,141.04206850001356,141.04206850001356,142.0419564000331,142.0419564000331,142.42710840003565,c,1,0.37672709999606013,None,,,,,,,,,,,,,,,04,001,2025-10-03_15h34.13.641,motorselection,,2025.1.1,60.01205041367239,2025-10-03 15h34.27.861727 +0530,
-150,z,55,3,13,z,1,0.7884957999922335,None,,,,,13,3,55,3,,,,,142.4418329000473,,142.42853219999233,142.4418329000473,143.44184800004587,143.44184800004587,143.44184800004587,143.44184800004587,143.44184800004587,144.44174090004526,144.44174090004526,145.24386400001822,z,1,0.7884957999922335,None,,,,,,,,,,,,,,,04,001,2025-10-03_15h34.13.641,motorselection,,2025.1.1,60.01205041367239,2025-10-03 15h34.27.861727 +0530,
-50,x,56,0,14,x,1,0.9144102000282146,None,,,,,14,0,56,0,,,,,145.25817869999446,,145.2451978000463,145.25817869999446,146.25817580003059,146.25817580003059,146.25817580003059,146.25817580003059,146.25817580003059,147.2580676000216,147.2580676000216,148.17557960003614,x,1,0.9144102000282146,None,,,,,,,,,,,,,,,04,001,2025-10-03_15h34.13.641,motorselection,,2025.1.1,60.01205041367239,2025-10-03 15h34.27.861727 +0530,
150,v,57,1,14,v,1,0.5564500000327826,None,,,,,14,1,57,1,,,,,148.1911609999952,,148.176609200018,148.1911609999952,149.19125470001018,149.19125470001018,149.19125470001018,149.19125470001018,149.19125470001018,150.19112249999307,150.19112249999307,150.75942080002278,v,1,0.5564500000327826,None,,,,,,,,,,,,,,,04,001,2025-10-03_15h34.13.641,motorselection,,2025.1.1,60.01205041367239,2025-10-03 15h34.27.861727 +0530,
50,c,58,2,14,c,1,0.34981029998743907,None,,,,,14,2,58,2,,,,,150.77428080001846,,150.7608717000112,150.77428080001846,151.77413540001726,151.77413540001726,151.77413540001726,151.77413540001726,151.77413540001726,152.77420040004654,152.77420040004654,153.12580870004604,c,1,0.34981029998743907,None,,,,,,,,,,,,,,,04,001,2025-10-03_15h34.13.641,motorselection,,2025.1.1,60.01205041367239,2025-10-03 15h34.27.861727 +0530,
-150,z,59,3,14,z,1,1.4477159000234678,None,,,,,14,3,59,3,,,,,153.1408315000008,,153.1270610000356,153.1408315000008,154.14060139999492,154.14060139999492,154.14060139999492,154.14060139999492,154.14060139999492,155.1407160999952,155.1407160999952,156.59189460001653,z,1,1.4477159000234678,None,,,,,,,,,,,,,,,04,001,2025-10-03_15h34.13.641,motorselection,,2025.1.1,60.01205041367239,2025-10-03 15h34.27.861727 +0530,
-50,x,60,0,15,x,1,0.4116647999617271,None,,,,,15,0,60,0,,,,,156.6071101000416,,156.59331240004394,156.6071101000416,157.60711949999677,157.60711949999677,157.60711949999677,157.60711949999677,157.60711949999677,158.60702170000877,158.60702170000877,159.02577860001475,x,1,0.4116647999617271,None,,,,,,,,,,,,,,,04,001,2025-10-03_15h34.13.641,motorselection,,2025.1.1,60.01205041367239,2025-10-03 15h34.27.861727 +0530,
150,v,61,1,15,c,0,0.4113814000156708,None,,,,,15,1,61,1,,,,,159.04041660000803,,159.02726649999386,159.04041660000803,160.03960459999507,160.03960459999507,160.03960459999507,160.03960459999507,160.03960459999507,161.039981000009,161.039981000009,161.45854750002036,c,0,0.4113814000156708,None,,,,,,,,,,,,,,,04,001,2025-10-03_15h34.13.641,motorselection,,2025.1.1,60.01205041367239,2025-10-03 15h34.27.861727 +0530,
50,c,62,2,15,c,1,0.3976279000053182,None,,,,,15,2,62,2,,,,,161.47325239999918,,161.45989659999032,161.47325239999918,162.47316340001998,162.47316340001998,162.47316340001998,162.47316340001998,162.47316340001998,163.4730583000346,163.4730583000346,163.874798200035,c,1,0.3976279000053182,None,,,,,,,,,,,,,,,04,001,2025-10-03_15h34.13.641,motorselection,,2025.1.1,60.01205041367239,2025-10-03 15h34.27.861727 +0530,
-150,z,63,3,15,z,1,0.727889200032223,None,,,,,15,3,63,3,,,,,163.88967750000302,,163.87642059999052,163.88967750000302,164.8896237000008,164.8896237000008,164.8896237000008,164.8896237000008,164.8896237000008,165.8893668000237,165.8893668000237,166.62435280001955,z,1,0.727889200032223,None,,,,,,,,,,,,,,,04,001,2025-10-03_15h34.13.641,motorselection,,2025.1.1,60.01205041367239,2025-10-03 15h34.27.861727 +0530,
-50,x,64,0,16,x,1,0.3981707000057213,None,,,,,16,0,64,0,,,,,166.64009080000687,,166.62562910001725,166.64009080000687,167.6394157000468,167.6394157000468,167.6394157000468,167.6394157000468,167.6394157000468,168.63925639999798,168.63925639999798,169.04091929999413,x,1,0.3981707000057213,None,,,,,,,,,,,,,,,04,001,2025-10-03_15h34.13.641,motorselection,,2025.1.1,60.01205041367239,2025-10-03 15h34.27.861727 +0530,
150,v,65,1,16,v,1,0.5826378000201657,None,,,,,16,1,65,1,,,,,169.05585820000852,,169.04222150001442,169.05585820000852,170.05586590000894,170.05586590000894,170.05586590000894,170.05586590000894,170.05586590000894,171.05526019999525,171.05526019999525,171.63942100002896,v,1,0.5826378000201657,None,,,,,,,,,,,,,,,04,001,2025-10-03_15h34.13.641,motorselection,,2025.1.1,60.01205041367239,2025-10-03 15h34.27.861727 +0530,
50,c,66,2,16,c,1,0.43982789997244254,None,,,,,16,2,66,2,,,,,171.6550097000436,,171.64030010002898,171.6550097000436,172.65498890000163,172.65498890000163,172.65498890000163,172.65498890000163,172.65498890000163,173.65488929999992,173.65488929999992,174.1052972000325,c,1,0.43982789997244254,None,,,,,,,,,,,,,,,04,001,2025-10-03_15h34.13.641,motorselection,,2025.1.1,60.01205041367239,2025-10-03 15h34.27.861727 +0530,
-150,z,67,3,16,z,1,0.5999907000223175,None,,,,,16,3,67,3,,,,,174.1211922999937,,174.10568149999017,174.1211922999937,175.10455330001423,175.10455330001423,175.10455330001423,175.10455330001423,175.12146990001202,176.10436240001582,176.10436240001582,176.70558360003633,z,1,0.5999907000223175,None,,,,,,,,,,,,,,,04,001,2025-10-03_15h34.13.641,motorselection,,2025.1.1,60.01205041367239,2025-10-03 15h34.27.861727 +0530,
-50,x,68,0,17,x,1,0.5481963999918662,None,,,,,17,0,68,0,,,,,176.72096150001744,,176.7066442000214,176.72096150001744,177.72145559999626,177.72145559999626,177.72145559999626,177.72145559999626,177.72145559999626,178.72133790003136,178.72133790003136,179.2723084000172,x,1,0.5481963999918662,None,,,,,,,,,,,,,,,04,001,2025-10-03_15h34.13.641,motorselection,,2025.1.1,60.01205041367239,2025-10-03 15h34.27.861727 +0530,
150,v,69,1,17,c,0,0.13437350001186132,None,,,,,17,1,69,1,,,,,179.2880250000162,,179.27311250002822,179.2880250000162,180.2877425000188,180.2877425000188,180.2877425000188,180.2877425000188,180.2877425000188,181.28800679999404,181.28800679999404,181.43915019999258,c,0,0.13437350001186132,None,,,,,,,,,,,,,,,04,001,2025-10-03_15h34.13.641,motorselection,,2025.1.1,60.01205041367239,2025-10-03 15h34.27.861727 +0530,
50,c,70,2,17,c,1,0.5534074999741279,None,,,,,17,2,70,2,,,,,181.45455510000465,,181.44023080001352,181.45455510000465,182.4545397000038,182.4545397000038,182.4545397000038,182.4545397000038,182.4545397000038,183.45426230004523,183.45426230004523,184.02276449999772,c,1,0.5534074999741279,None,,,,,,,,,,,,,,,04,001,2025-10-03_15h34.13.641,motorselection,,2025.1.1,60.01205041367239,2025-10-03 15h34.27.861727 +0530,
-150,z,71,3,17,z,1,1.1785150000359863,None,,,,,17,3,71,3,,,,,184.03769500000635,,184.02415410004323,184.03769500000635,185.0377448000363,185.0377448000363,185.0377448000363,185.0377448000363,185.0377448000363,186.03699829999823,186.03699829999823,187.22218430001521,z,1,1.1785150000359863,None,,,,,,,,,,,,,,,04,001,2025-10-03_15h34.13.641,motorselection,,2025.1.1,60.01205041367239,2025-10-03 15h34.27.861727 +0530,
-50,x,72,0,18,x,1,0.49501009995583445,None,,,,,18,0,72,0,,,,,187.23720070003765,,187.22351510002045,187.23720070003765,188.23727199999848,188.23727199999848,188.23727199999848,188.23727199999848,188.23727199999848,189.2372028999962,189.2372028999962,189.73888920003083,x,1,0.49501009995583445,None,,,,,,,,,,,,,,,04,001,2025-10-03_15h34.13.641,motorselection,,2025.1.1,60.01205041367239,2025-10-03 15h34.27.861727 +0530,
150,v,73,1,18,v,1,0.28691349999280646,None,,,,,18,1,73,1,,,,,189.75372660002904,,189.74063090002164,189.75372660002904,190.7536809000303,190.7536809000303,190.7536809000303,190.7536809000303,190.7536809000303,191.7535712000099,191.7535712000099,192.05474370002048,v,1,0.28691349999280646,None,,,,,,,,,,,,,,,04,001,2025-10-03_15h34.13.641,motorselection,,2025.1.1,60.01205041367239,2025-10-03 15h34.27.861727 +0530,
50,c,74,2,18,c,1,0.1385588999837637,None,,,,,18,2,74,2,,,,,192.07010030001402,,192.05584640003508,192.07010030001402,193.0700491000316,193.0700491000316,193.0700491000316,193.0700491000316,193.0700491000316,194.06989330000943,194.06989330000943,194.2215732000186,c,1,0.1385588999837637,None,,,,,,,,,,,,,,,04,001,2025-10-03_15h34.13.641,motorselection,,2025.1.1,60.01205041367239,2025-10-03 15h34.27.861727 +0530,
-150,z,75,3,18,z,1,0.8690739999874495,None,,,,,18,3,75,3,,,,,194.23668370000087,,194.22290690004593,194.23668370000087,195.2365848000045,195.2365848000045,195.2365848000045,195.2365848000045,195.2365848000045,196.23634639999364,196.23634639999364,197.1213271000306,z,1,0.8690739999874495,None,,,,,,,,,,,,,,,04,001,2025-10-03_15h34.13.641,motorselection,,2025.1.1,60.01205041367239,2025-10-03 15h34.27.861727 +0530,
-50,x,76,0,19,x,1,0.2436211999738589,None,,,,,19,0,76,0,,,,,197.13641199999256,,197.12277050002012,197.13641199999256,198.13628470001277,198.13628470001277,198.13628470001277,198.13628470001277,198.13628470001277,199.13619270001072,199.13619270001072,199.38778869999805,x,1,0.2436211999738589,None,,,,,,,,,,,,,,,04,001,2025-10-03_15h34.13.641,motorselection,,2025.1.1,60.01205041367239,2025-10-03 15h34.27.861727 +0530,
150,v,77,1,19,v,1,0.9459582000272349,None,,,,,19,1,77,1,,,,,199.40281580004375,,199.3891891000094,199.40281580004375,200.4026069000247,200.4026069000247,200.4026069000247,200.4026069000247,200.4026069000247,201.4021747999941,201.4021747999941,202.3552188000176,v,1,0.9459582000272349,None,,,,,,,,,,,,,,,04,001,2025-10-03_15h34.13.641,motorselection,,2025.1.1,60.01205041367239,2025-10-03 15h34.27.861727 +0530,
50,c,78,2,19,c,1,0.3980439000297338,None,,,,,19,2,78,2,,,,,202.36865350004518,,202.35664220002946,202.36865350004518,203.36899580003228,203.36899580003228,203.36899580003228,203.36899580003228,203.36899580003228,204.3689228000003,204.3689228000003,204.7703887000098,c,1,0.3980439000297338,None,,,,,,,,,,,,,,,04,001,2025-10-03_15h34.13.641,motorselection,,2025.1.1,60.01205041367239,2025-10-03 15h34.27.861727 +0530,
-150,z,79,3,19,z,1,0.4797915000235662,None,,,,,19,3,79,3,,,,,204.78562899999088,,204.77183230000082,204.78562899999088,205.78555070003495,205.78555070003495,205.78555070003495,205.78555070003495,205.78555070003495,206.78539470001124,206.78539470001124,207.2704673000262,z,1,0.4797915000235662,None,,,,,,,,,,,,,,,04,001,2025-10-03_15h34.13.641,motorselection,,2025.1.1,60.01205041367239,2025-10-03 15h34.27.861727 +0530,
-50,x,80,0,20,x,1,0.6102670999825932,None,,,,,20,0,80,0,,,,,207.2853133000317,,207.27184800000396,207.2853133000317,208.28526370000327,208.28526370000327,208.28526370000327,208.28526370000327,208.28526370000327,209.28518270002678,209.28518270002678,209.90310920000775,x,1,0.6102670999825932,None,,,,,,,,,,,,,,,04,001,2025-10-03_15h34.13.641,motorselection,,2025.1.1,60.01205041367239,2025-10-03 15h34.27.861727 +0530,
150,v,81,1,20,v,1,1.490362499956973,None,,,,,20,1,81,1,,,,,209.91845350002404,,209.90433380001923,209.91845350002404,210.91818900004728,210.91818900004728,210.91818900004728,210.91818900004728,210.91818900004728,211.91825990000507,211.91825990000507,213.4194592999993,v,1,1.490362499956973,None,,,,,,,,,,,,,,,04,001,2025-10-03_15h34.13.641,motorselection,,2025.1.1,60.01205041367239,2025-10-03 15h34.27.861727 +0530,
50,c,82,2,20,c,1,0.12277600000379607,None,,,,,20,2,82,2,,,,,213.43468730000313,,213.42097810003906,213.43468730000313,214.43466080003418,214.43466080003418,214.43466080003418,214.43466080003418,214.43466080003418,215.43445570004405,215.43445570004405,215.56911129999207,c,1,0.12277600000379607,None,,,,,,,,,,,,,,,04,001,2025-10-03_15h34.13.641,motorselection,,2025.1.1,60.01205041367239,2025-10-03 15h34.27.861727 +0530,
-150,z,83,3,20,z,1,1.034556899976451,None,,,,,20,3,83,3,,,,,215.584544500045,,215.57032190001337,215.584544500045,216.58441990002757,216.58441990002757,216.58441990002757,216.58441990002757,216.58441990002757,217.584223700047,217.584223700047,218.63590729999123,z,1,1.034556899976451,None,,,,,,,,,,,,,,,04,001,2025-10-03_15h34.13.641,motorselection,,2025.1.1,60.01205041367239,2025-10-03 15h34.27.861727 +0530,
-50,x,84,0,21,x,1,1.0826684000203386,None,,,,,21,0,84,0,,,,,218.65093400003389,,218.63735710002948,218.65093400003389,219.65084040001966,219.65084040001966,219.65084040001966,219.65084040001966,219.65084040001966,220.65067629999248,220.65067629999248,221.75054520001868,x,1,1.0826684000203386,None,,,,,,,,,,,,,,,04,001,2025-10-03_15h34.13.641,motorselection,,2025.1.1,60.01205041367239,2025-10-03 15h34.27.861727 +0530,
150,v,85,1,21,v,1,0.49119979998795316,None,,,,,21,1,85,1,,,,,221.7664643000462,,221.7509793000063,221.7664643000462,222.74979530001292,222.74979530001292,222.74979530001292,222.74979530001292,222.7664780000341,223.76625610003248,223.76625610003248,224.26799680001568,v,1,0.49119979998795316,None,,,,,,,,,,,,,,,04,001,2025-10-03_15h34.13.641,motorselection,,2025.1.1,60.01205041367239,2025-10-03 15h34.27.861727 +0530,
50,c,86,2,21,c,1,0.5148919000057504,None,,,,,21,2,86,2,,,,,224.28301160002593,,224.2691750000231,224.28301160002593,225.28289490001043,225.28289490001043,225.28289490001043,225.28289490001043,225.28289490001043,226.2832663000445,226.2832663000445,226.8000568000134,c,1,0.5148919000057504,None,,,,,,,,,,,,,,,04,001,2025-10-03_15h34.13.641,motorselection,,2025.1.1,60.01205041367239,2025-10-03 15h34.27.861727 +0530,
-150,z,87,3,21,z,1,0.3475482999929227,None,,,,,21,3,87,3,,,,,226.81592110003112,,226.80065099999774,226.81592110003112,227.799620100006,227.799620100006,227.799620100006,227.799620100006,227.81613580003614,228.7994968999992,228.7994968999992,229.1504025000031,z,1,0.3475482999929227,None,,,,,,,,,,,,,,,04,001,2025-10-03_15h34.13.641,motorselection,,2025.1.1,60.01205041367239,2025-10-03 15h34.27.861727 +0530,
-50,x,88,0,22,x,1,0.4224163999897428,None,,,,,22,0,88,0,,,,,229.16615080001066,,229.15128670004196,229.16615080001066,230.16604260000167,230.16604260000167,230.16604260000167,230.16604260000167,230.16604260000167,231.16616290004458,231.16616290004458,231.60074810002698,x,1,0.4224163999897428,None,,,,,,,,,,,,,,,04,001,2025-10-03_15h34.13.641,motorselection,,2025.1.1,60.01205041367239,2025-10-03 15h34.27.861727 +0530,
150,v,89,1,22,v,1,0.9814594000345096,None,,,,,22,1,89,1,,,,,231.61614860000554,,231.6018686000025,231.61614860000554,232.61614649998955,232.61614649998955,232.61614649998955,232.61614649998955,232.61614649998955,233.61600010003895,233.61600010003895,234.60104159999173,v,1,0.9814594000345096,None,,,,,,,,,,,,,,,04,001,2025-10-03_15h34.13.641,motorselection,,2025.1.1,60.01205041367239,2025-10-03 15h34.27.861727 +0530,
50,c,90,2,22,c,1,0.42299089999869466,None,,,,,22,2,90,2,,,,,234.61574390000897,,234.60294970002724,234.61574390000897,235.6158493999974,235.6158493999974,235.6158493999974,235.6158493999974,235.6158493999974,236.6157534000231,236.6157534000231,237.05060100002447,c,1,0.42299089999869466,None,,,,,,,,,,,,,,,04,001,2025-10-03_15h34.13.641,motorselection,,2025.1.1,60.01205041367239,2025-10-03 15h34.27.861727 +0530,
-150,z,91,3,22,z,1,1.9323328000027686,None,,,,,22,3,91,3,,,,,237.0657121000113,,237.05186410003807,237.0657121000113,238.06563520000782,238.06563520000782,238.06563520000782,238.06563520000782,238.06563520000782,239.06553580000764,239.06553580000764,241.00007110001752,z,1,1.9323328000027686,None,,,,,,,,,,,,,,,04,001,2025-10-03_15h34.13.641,motorselection,,2025.1.1,60.01205041367239,2025-10-03 15h34.27.861727 +0530,
-50,x,92,0,23,x,1,0.9251127999741584,None,,,,,23,0,92,0,,,,,241.01528960000724,,241.00133420003112,241.01528960000724,242.0152411000454,242.0152411000454,242.0152411000454,242.0152411000454,242.0152411000454,243.01509430003352,243.01509430003352,243.95026680000592,x,1,0.9251127999741584,None,,,,,,,,,,,,,,,04,001,2025-10-03_15h34.13.641,motorselection,,2025.1.1,60.01205041367239,2025-10-03 15h34.27.861727 +0530,
150,v,93,1,23,v,1,0.36581519996980205,None,,,,,23,1,93,1,,,,,243.96499430004042,,243.95161580003332,243.96499430004042,244.96491640002932,244.96491640002932,244.96491640002932,244.96491640002932,244.96491640002932,245.96505080000497,245.96505080000497,246.3326944000437,v,1,0.36581519996980205,None,,,,,,,,,,,,,,,04,001,2025-10-03_15h34.13.641,motorselection,,2025.1.1,60.01205041367239,2025-10-03 15h34.27.861727 +0530,
50,c,94,2,23,c,1,0.04070020001381636,None,,,,,23,2,94,2,,,,,246.3478790000081,,246.33390720002353,246.3478790000081,247.34808840003097,247.34808840003097,247.34808840003097,247.34808840003097,247.34808840003097,248.3479168000049,248.3479168000049,248.399258200021,c,1,0.04070020001381636,None,,,,,,,,,,,,,,,04,001,2025-10-03_15h34.13.641,motorselection,,2025.1.1,60.01205041367239,2025-10-03 15h34.27.861727 +0530,
-150,z,95,3,23,z,1,0.07960930000990629,None,,,,,23,3,95,3,,,,,248.41462440002942,,248.40069560002303,248.41462440002942,249.41435310000088,249.41435310000088,249.41435310000088,249.41435310000088,249.41435310000088,250.41434540000046,250.41434540000046,250.499040100025,z,1,0.07960930000990629,None,,,,,,,,,,,,,,,04,001,2025-10-03_15h34.13.641,motorselection,,2025.1.1,60.01205041367239,2025-10-03 15h34.27.861727 +0530,
-50,x,96,0,24,x,1,0.3513754999730736,None,,,,,24,0,96,0,,,,,250.51429920003284,,250.50059930002317,250.51429920003284,251.51425910001853,251.51425910001853,251.51425910001853,251.51425910001853,251.51425910001853,252.5140918000252,252.5140918000252,252.88311460003024,x,1,0.3513754999730736,None,,,,,,,,,,,,,,,04,001,2025-10-03_15h34.13.641,motorselection,,2025.1.1,60.01205041367239,2025-10-03 15h34.27.861727 +0530,
150,v,97,1,24,v,1,0.4663963000057265,None,,,,,24,1,97,1,,,,,252.89744900004007,,252.88434869999764,252.89744900004007,253.89717740000924,253.89717740000924,253.89717740000924,253.89717740000924,253.89717740000924,254.89728170004673,254.89728170004673,255.36550960002933,v,1,0.4663963000057265,None,,,,,,,,,,,,,,,04,001,2025-10-03_15h34.13.641,motorselection,,2025.1.1,60.01205041367239,2025-10-03 15h34.27.861727 +0530,
50,c,98,2,24,c,1,1.3416509000235237,None,,,,,24,2,98,2,,,,,255.38056499999948,,255.36690010002349,255.38056499999948,256.3804661000031,256.3804661000031,256.3804661000031,256.3804661000031,256.3804661000031,257.3803279999993,257.3803279999993,258.73169400001643,c,1,1.3416509000235237,None,,,,,,,,,,,,,,,04,001,2025-10-03_15h34.13.641,motorselection,,2025.1.1,60.01205041367239,2025-10-03 15h34.27.861727 +0530,
-150,z,99,3,24,z,1,1.750974100024905,None,,,,,24,3,99,3,,,,,258.74669800000265,,258.73294930002885,258.74669800000265,259.7467600000091,259.7467600000091,259.7467600000091,259.7467600000091,259.7467600000091,260.7466343000415,260.7466343000415,262.51456149999285,z,1,1.750974100024905,None,,,,,,,,,,,,,,,04,001,2025-10-03_15h34.13.641,motorselection,,2025.1.1,60.01205041367239,2025-10-03 15h34.27.861727 +0530,
-50,x,100,0,25,x,1,0.33277560002170503,None,,,,,25,0,100,0,,,,,262.5297971999971,,262.51578810001956,262.5297971999971,263.52975010004593,263.52975010004593,263.52975010004593,263.52975010004593,263.52975010004593,264.5296646000352,264.5296646000352,264.86444460001076,x,1,0.33277560002170503,None,,,,,,,,,,,,,,,04,001,2025-10-03_15h34.13.641,motorselection,,2025.1.1,60.01205041367239,2025-10-03 15h34.27.861727 +0530,
150,v,101,1,25,g,0,0.20406720001483336,None,,,,,25,1,101,1,,,,,264.8794736000127,,264.8656883999938,264.8794736000127,265.8794714999967,265.8794714999967,265.8794714999967,265.8794714999967,265.8794714999967,266.87940470001195,266.87940470001195,267.0975905000232,g,0,0.20406720001483336,None,,,,,,,,,,,,,,,04,001,2025-10-03_15h34.13.641,motorselection,,2025.1.1,60.01205041367239,2025-10-03 15h34.27.861727 +0530,
50,c,102,2,25,c,1,0.33510969998314977,None,,,,,25,2,102,2,,,,,267.1126393000013,,267.0992746000411,267.1126393000013,268.11272189999,268.11272189999,268.11272189999,268.11272189999,268.11272189999,269.1123739000177,269.1123739000177,269.46392130001914,c,1,0.33510969998314977,None,,,,,,,,,,,,,,,04,001,2025-10-03_15h34.13.641,motorselection,,2025.1.1,60.01205041367239,2025-10-03 15h34.27.861727 +0530,
-150,z,103,3,25,z,1,1.928507599979639,None,,,,,25,3,103,3,,,,,269.4791252000141,,269.46519370004535,269.4791252000141,270.4790900000371,270.4790900000371,270.4790900000371,270.4790900000371,270.4790900000371,271.4780080000055,271.4780080000055,273.4125146000297,z,1,1.928507599979639,None,,,,,,,,,,,,,,,04,001,2025-10-03_15h34.13.641,motorselection,,2025.1.1,60.01205041367239,2025-10-03 15h34.27.861727 +0530,
-50,x,104,0,26,x,1,0.6007472999626771,None,,,,,26,0,104,0,,,,,273.4281975000049,,273.4131570000318,273.4281975000049,274.4281192999915,274.4281192999915,274.4281192999915,274.4281192999915,274.4281192999915,275.4277574000298,275.4277574000298,276.0453597000451,x,1,0.6007472999626771,None,,,,,,,,,,,,,,,04,001,2025-10-03_15h34.13.641,motorselection,,2025.1.1,60.01205041367239,2025-10-03 15h34.27.861727 +0530,
150,v,105,1,26,v,1,1.6936396000091918,None,,,,,26,1,105,1,,,,,276.0614640000276,,276.04583950003143,276.0614640000276,277.06087169999955,277.06087169999955,277.06087169999955,277.06087169999955,277.06087169999955,278.0446949999896,278.0446949999896,279.74571019998984,v,1,1.6936396000091918,None,,,,,,,,,,,,,,,04,001,2025-10-03_15h34.13.641,motorselection,,2025.1.1,60.01205041367239,2025-10-03 15h34.27.861727 +0530,
50,c,106,2,26,c,1,0.39779150002868846,None,,,,,26,2,106,2,,,,,279.76126330002444,,279.7466319000232,279.76126330002444,280.76125520002097,280.76125520002097,280.76125520002097,280.76125520002097,280.76125520002097,281.7610829999903,281.7610829999903,282.16232270002365,c,1,0.39779150002868846,None,,,,,,,,,,,,,,,04,001,2025-10-03_15h34.13.641,motorselection,,2025.1.1,60.01205041367239,2025-10-03 15h34.27.861727 +0530,
-150,z,107,3,26,z,1,0.3865848000277765,None,,,,,26,3,107,3,,,,,282.17784340004437,,282.1635292000137,282.17784340004437,283.1778467000113,283.1778467000113,283.1778467000113,283.1778467000113,283.1778467000113,284.1776377999922,284.1776377999922,284.5792866999982,z,1,0.3865848000277765,None,,,,,,,,,,,,,,,04,001,2025-10-03_15h34.13.641,motorselection,,2025.1.1,60.01205041367239,2025-10-03 15h34.27.861727 +0530,
-50,x,108,0,27,x,1,0.3466380999889225,None,,,,,27,0,108,0,,,,,284.5942335000145,,284.5808127000346,284.5942335000145,285.5941087999963,285.5941087999963,285.5941087999963,285.5941087999963,285.5941087999963,286.59401709999656,286.59401709999656,286.94539800001075,x,1,0.3466380999889225,None,,,,,,,,,,,,,,,04,001,2025-10-03_15h34.13.641,motorselection,,2025.1.1,60.01205041367239,2025-10-03 15h34.27.861727 +0530,
150,v,109,1,27,v,1,0.20176180003909394,None,,,,,27,1,109,1,,,,,286.9607311,,286.9467366000172,286.9607311,287.96061629999895,287.96061629999895,287.96061629999895,287.96061629999895,287.96061629999895,288.96054950001417,288.96054950001417,289.178665000014,v,1,0.20176180003909394,None,,,,,,,,,,,,,,,04,001,2025-10-03_15h34.13.641,motorselection,,2025.1.1,60.01205041367239,2025-10-03 15h34.27.861727 +0530,
50,c,110,2,27,c,1,0.3426142000243999,None,,,,,27,2,110,2,,,,,289.1938272000407,,289.1801126000355,289.1938272000407,290.19358690001536,290.19358690001536,290.19358690001536,290.19358690001536,290.19358690001536,291.193560899992,291.193560899992,291.5444880000432,c,1,0.3426142000243999,None,,,,,,,,,,,,,,,04,001,2025-10-03_15h34.13.641,motorselection,,2025.1.1,60.01205041367239,2025-10-03 15h34.27.861727 +0530,
-150,z,111,3,27,z,1,0.06489849998615682,None,,,,,27,3,111,3,,,,,291.55998970003566,,291.545760900015,291.55998970003566,292.56012810004177,292.56012810004177,292.56012810004177,292.56012810004177,292.56012810004177,293.5600354000344,293.5600354000344,293.628124400042,z,1,0.06489849998615682,None,,,,,,,,,,,,,,,04,001,2025-10-03_15h34.13.641,motorselection,,2025.1.1,60.01205041367239,2025-10-03 15h34.27.861727 +0530,
-50,x,112,0,28,x,1,1.480967600014992,None,,,,,28,0,112,0,,,,,293.64328429999296,,293.6293876999989,293.64328429999296,294.6432177000097,294.6432177000097,294.6432177000097,294.6432177000097,294.6432177000097,295.6430715000024,295.6430715000024,297.1278489000397,x,1,1.480967600014992,None,,,,,,,,,,,,,,,04,001,2025-10-03_15h34.13.641,motorselection,,2025.1.1,60.01205041367239,2025-10-03 15h34.27.861727 +0530,
150,v,113,1,28,v,1,0.18595499999355525,None,,,,,28,1,113,1,,,,,297.14293060003547,,297.13042850000784,297.14293060003547,298.14281029999256,298.14281029999256,298.14281029999256,298.14281029999256,298.14281029999256,299.14269800001057,299.14269800001057,299.3442421000218,v,1,0.18595499999355525,None,,,,,,,,,,,,,,,04,001,2025-10-03_15h34.13.641,motorselection,,2025.1.1,60.01205041367239,2025-10-03 15h34.27.861727 +0530,
50,c,114,2,28,c,1,0.4318337999866344,None,,,,,28,2,114,2,,,,,299.3594044999918,,299.34564170002704,299.3594044999918,300.35941940004705,300.35941940004705,300.35941940004705,300.35941940004705,300.35941940004705,301.35909700003685,301.35909700003685,301.7941248000134,c,1,0.4318337999866344,None,,,,,,,,,,,,,,,04,001,2025-10-03_15h34.13.641,motorselection,,2025.1.1,60.01205041367239,2025-10-03 15h34.27.861727 +0530,
-150,z,115,3,28,z,1,0.30606629996327683,None,,,,,28,3,115,3,,,,,301.8092233000207,,301.79674010002054,301.8092233000207,302.8090899999952,302.8090899999952,302.8090899999952,302.8090899999952,302.8090899999952,303.808967399993,303.808967399993,304.12800389999757,z,1,0.30606629996327683,None,,,,,,,,,,,,,,,04,001,2025-10-03_15h34.13.641,motorselection,,2025.1.1,60.01205041367239,2025-10-03 15h34.27.861727 +0530,
-50,x,116,0,29,x,1,0.6088212000322528,None,,,,,29,0,116,0,,,,,304.14225150004495,,304.12988130003214,304.14225150004495,305.1420731000253,305.1420731000253,305.1420731000253,305.1420731000253,305.1420731000253,306.142147400009,306.142147400009,306.7591167000355,x,1,0.6088212000322528,None,,,,,,,,,,,,,,,04,001,2025-10-03_15h34.13.641,motorselection,,2025.1.1,60.01205041367239,2025-10-03 15h34.27.861727 +0530,
150,v,117,1,29,v,1,0.6296275000204332,None,,,,,29,1,117,1,,,,,306.7748768000165,,306.7598885000334,306.7748768000165,307.7586327000172,307.7586327000172,307.7586327000172,307.7586327000172,307.77531160000945,308.7584492000169,308.7584492000169,309.39328459999524,v,1,0.6296275000204332,None,,,,,,,,,,,,,,,04,001,2025-10-03_15h34.13.641,motorselection,,2025.1.1,60.01205041367239,2025-10-03 15h34.27.861727 +0530,
50,c,118,2,29,c,1,1.2643252999987453,None,,,,,29,2,118,2,,,,,309.40845789999,,309.394628100039,309.40845789999,310.40826460003154,310.40826460003154,310.40826460003154,310.40826460003154,310.40826460003154,311.4082270000363,311.4082270000363,312.6752131000394,c,1,1.2643252999987453,None,,,,,,,,,,,,,,,04,001,2025-10-03_15h34.13.641,motorselection,,2025.1.1,60.01205041367239,2025-10-03 15h34.27.861727 +0530,
-150,z,119,3,29,z,1,0.7295182999805547,None,,,,,29,3,119,3,,,,,312.6910148000461,,312.6759105999954,312.6910148000461,313.6746051000082,313.6746051000082,313.6746051000082,313.6746051000082,313.6914565000334,314.67458739998983,314.67458739998983,315.40921410004376,z,1,0.7295182999805547,None,,,,,,,,,,,,,,,04,001,2025-10-03_15h34.13.641,motorselection,,2025.1.1,60.01205041367239,2025-10-03 15h34.27.861727 +0530,
-50,x,120,0,30,x,1,0.5898323000292294,None,,,,,30,0,120,0,,,,,315.4245212000096,,315.4105211000424,315.4245212000096,316.42440130002797,316.42440130002797,316.42440130002797,316.42440130002797,316.42440130002797,317.42428490001475,317.42428490001475,318.0256256000139,x,1,0.5898323000292294,None,,,,,,,,,,,,,,,04,001,2025-10-03_15h34.13.641,motorselection,,2025.1.1,60.01205041367239,2025-10-03 15h34.27.861727 +0530,
150,v,121,1,30,v,1,0.3142273999983445,None,,,,,30,1,121,1,,,,,318.04092880000826,,318.02687170001445,318.04092880000826,319.0407353999908,319.0407353999908,319.0407353999908,319.0407353999908,319.0407353999908,320.0407481000293,320.0407481000293,320.35885170003166,v,1,0.3142273999983445,None,,,,,,,,,,,,,,,04,001,2025-10-03_15h34.13.641,motorselection,,2025.1.1,60.01205041367239,2025-10-03 15h34.27.861727 +0530,
50,c,122,2,30,c,1,0.7182056000456214,None,,,,,30,2,122,2,,,,,320.3739002000075,,320.36042240000097,320.3739002000075,321.37350879999576,321.37350879999576,321.37350879999576,321.37350879999576,321.37350879999576,322.37369120004587,322.37369120004587,323.10867290000897,c,1,0.7182056000456214,None,,,,,,,,,,,,,,,04,001,2025-10-03_15h34.13.641,motorselection,,2025.1.1,60.01205041367239,2025-10-03 15h34.27.861727 +0530,
-150,z,123,3,30,z,1,0.3903326999861747,None,,,,,30,3,123,3,,,,,323.12371660000645,,323.1101003999938,323.12371660000645,324.1227144000004,324.1227144000004,324.1227144000004,324.1227144000004,324.1227144000004,325.12262010003906,325.12262010003906,325.52347130002454,z,1,0.3903326999861747,None,,,,,,,,,,,,,,,04,001,2025-10-03_15h34.13.641,motorselection,,2025.1.1,60.01205041367239,2025-10-03 15h34.27.861727 +0530,
-50,x,124,0,31,x,1,0.5547912000329234,None,,,,,31,0,124,0,,,,,325.5394858000218,,325.5239615000319,325.5394858000218,326.5227412999957,326.5227412999957,326.5227412999957,326.5227412999957,326.539425200026,327.5224771000212,327.5224771000212,328.0895831999951,x,1,0.5547912000329234,None,,,,,,,,,,,,,,,04,001,2025-10-03_15h34.13.641,motorselection,,2025.1.1,60.01205041367239,2025-10-03 15h34.27.861727 +0530,
150,v,125,1,31,v,1,0.5586903999792412,None,,,,,31,1,125,1,,,,,328.1058232000214,,328.0899560000398,328.1058232000214,329.0891416000086,329.0891416000086,329.0891416000086,329.0891416000086,329.10575740004424,330.0888290000148,330.0888290000148,330.6564837000333,v,1,0.5586903999792412,None,,,,,,,,,,,,,,,04,001,2025-10-03_15h34.13.641,motorselection,,2025.1.1,60.01205041367239,2025-10-03 15h34.27.861727 +0530,
50,c,126,2,31,c,1,0.4406063999631442,None,,,,,31,2,126,2,,,,,330.67232460004743,,330.6573129000026,330.67232460004743,331.6558355000452,331.6558355000452,331.6558355000452,331.6558355000452,331.6724233000423,332.65604450000683,332.65604450000683,333.10713200003374,c,1,0.4406063999631442,None,,,,,,,,,,,,,,,04,001,2025-10-03_15h34.13.641,motorselection,,2025.1.1,60.01205041367239,2025-10-03 15h34.27.861727 +0530,
-150,z,127,3,31,z,1,0.15650720003759488,None,,,,,31,3,127,3,,,,,333.122550900036,,333.108037900005,333.122550900036,334.1224529000465,334.1224529000465,334.1224529000465,334.1224529000465,334.1224529000465,335.1224603000446,335.1224603000446,335.2908650000463,z,1,0.15650720003759488,None,,,,,,,,,,,,,,,04,001,2025-10-03_15h34.13.641,motorselection,,2025.1.1,60.01205041367239,2025-10-03 15h34.27.861727 +0530,
-50,x,128,0,32,x,1,0.5961557000409812,None,,,,,32,0,128,0,,,,,335.3057992000249,,335.29252620000625,335.3057992000249,336.30573810002534,336.30573810002534,336.30573810002534,336.30573810002534,336.30573810002534,337.30565990001196,337.30565990001196,337.9069996000035,x,1,0.5961557000409812,None,,,,,,,,,,,,,,,04,001,2025-10-03_15h34.13.641,motorselection,,2025.1.1,60.01205041367239,2025-10-03 15h34.27.861727 +0530,
150,v,129,1,32,v,1,0.37589339999249205,None,,,,,32,1,129,1,,,,,337.9221219000174,,337.9083413000335,337.9221219000174,338.92227720003575,338.92227720003575,338.92227720003575,338.92227720003575,338.92227720003575,339.92201070004376,339.92201070004376,340.30694520002,v,1,0.37589339999249205,None,,,,,,,,,,,,,,,04,001,2025-10-03_15h34.13.641,motorselection,,2025.1.1,60.01205041367239,2025-10-03 15h34.27.861727 +0530,
50,c,130,2,32,c,1,0.8148915999918245,None,,,,,32,2,130,2,,,,,340.3220155000454,,340.3083641999983,340.3220155000454,341.32200600003125,341.32200600003125,341.32200600003125,341.32200600003125,341.32200600003125,342.3218784999917,342.3218784999917,343.13999120000517,c,1,0.8148915999918245,None,,,,,,,,,,,,,,,04,001,2025-10-03_15h34.13.641,motorselection,,2025.1.1,60.01205041367239,2025-10-03 15h34.27.861727 +0530,
-150,z,131,3,32,z,1,0.1998541000066325,None,,,,,32,3,131,3,,,,,343.1550479000434,,343.14123000000836,343.1550479000434,344.1549833000172,344.1549833000172,344.1549833000172,344.1549833000172,344.1549833000172,345.15481840004213,345.15481840004213,345.3565974000376,z,1,0.1998541000066325,None,,,,,,,,,,,,,,,04,001,2025-10-03_15h34.13.641,motorselection,,2025.1.1,60.01205041367239,2025-10-03 15h34.27.861727 +0530,
-50,x,132,0,33,x,1,0.002536800049711019,None,,,,,33,0,132,0,,,,,345.37153450003825,,345.35807429999113,345.37153450003825,346.3714958000346,346.3714958000346,346.3714958000346,346.3714958000346,346.3714958000346,347.37129590002587,347.37129590002587,347.3892302000313,x,1,0.002536800049711019,None,,,,,,,,,,,,,,,04,001,2025-10-03_15h34.13.641,motorselection,,2025.1.1,60.01205041367239,2025-10-03 15h34.27.861727 +0530,
150,v,133,1,33,v,1,0.26467939995927736,None,,,,,33,1,133,1,,,,,347.4045478000189,,347.39046110003255,347.4045478000189,348.40452030004235,348.40452030004235,348.40452030004235,348.40452030004235,348.40452030004235,349.4043510000338,349.4043510000338,349.67203610000433,v,1,0.26467939995927736,None,,,,,,,,,,,,,,,04,001,2025-10-03_15h34.13.641,motorselection,,2025.1.1,60.01205041367239,2025-10-03 15h34.27.861727 +0530,
50,c,134,2,33,c,1,0.37678210000740364,None,,,,,33,2,134,2,,,,,349.6877326000249,,349.6731043999898,349.6877326000249,350.6877248000237,350.6877248000237,350.6877248000237,350.6877248000237,350.6877248000237,351.6875437000417,351.6875437000417,352.07251780002844,c,1,0.37678210000740364,None,,,,,,,,,,,,,,,04,001,2025-10-03_15h34.13.641,motorselection,,2025.1.1,60.01205041367239,2025-10-03 15h34.27.861727 +0530,
-150,z,135,3,33,z,1,0.30840649997117,None,,,,,33,3,135,3,,,,,352.08731590001844,,352.0738868000335,352.08731590001844,353.08750369999325,353.08750369999325,353.08750369999325,353.08750369999325,353.08750369999325,354.08734920003917,354.08734920003917,354.4040856999927,z,1,0.30840649997117,None,,,,,,,,,,,,,,,04,001,2025-10-03_15h34.13.641,motorselection,,2025.1.1,60.01205041367239,2025-10-03 15h34.27.861727 +0530,
-50,x,136,0,34,x,1,0.32492420001653954,None,,,,,34,0,136,0,,,,,354.41976190003334,,354.4048194999923,354.41976190003334,355.4196380000212,355.4196380000212,355.4196380000212,355.4196380000212,355.4196380000212,356.41974760004086,356.41974760004086,356.75344950001454,x,1,0.32492420001653954,None,,,,,,,,,,,,,,,04,001,2025-10-03_15h34.13.641,motorselection,,2025.1.1,60.01205041367239,2025-10-03 15h34.27.861727 +0530,
150,v,137,1,34,c,0,1.2817028000135906,None,,,,,34,1,137,1,,,,,356.7696164000081,,356.7538129000459,356.7696164000081,357.75271680002334,357.75271680002334,357.75271680002334,357.75271680002334,357.76940490002744,358.75284269999247,358.75284269999247,360.03663839999354,c,0,1.2817028000135906,None,,,,,,,,,,,,,,,04,001,2025-10-03_15h34.13.641,motorselection,,2025.1.1,60.01205041367239,2025-10-03 15h34.27.861727 +0530,
50,c,138,2,34,z,0,0.7651827999507077,None,,,,,34,2,138,2,,,,,360.0527216999908,,360.0371000000159,360.0527216999908,361.0361977000139,361.0361977000139,361.0361977000139,361.0361977000139,361.05275650002295,362.03570020000916,362.03570020000916,362.8039967000368,z,0,0.7651827999507077,None,,,,,,,,,,,,,,,04,001,2025-10-03_15h34.13.641,motorselection,,2025.1.1,60.01205041367239,2025-10-03 15h34.27.861727 +0530,
-150,z,139,3,34,x,0,0.3175158000085503,None,,,,,34,3,139,3,,,,,362.8193919000332,,362.80505810002796,362.8193919000332,363.81914269999834,363.81914269999834,363.81914269999834,363.81914269999834,363.81914269999834,364.81939930003136,364.81939930003136,365.15395830001216,x,0,0.3175158000085503,None,,,,,,,,,,,,,,,04,001,2025-10-03_15h34.13.641,motorselection,,2025.1.1,60.01205041367239,2025-10-03 15h34.27.861727 +0530,
-50,x,140,0,35,x,1,0.45522299996810034,None,,,,,35,0,140,0,,,,,365.1693457000074,,365.15525330003584,365.1693457000074,366.1693767000106,366.1693767000106,366.1693767000106,366.1693767000106,366.1693767000106,367.16939680004725,367.16939680004725,367.6378690000274,x,1,0.45522299996810034,None,,,,,,,,,,,,,,,04,001,2025-10-03_15h34.13.641,motorselection,,2025.1.1,60.01205041367239,2025-10-03 15h34.27.861727 +0530,
150,v,141,1,35,v,1,0.7150327999843284,None,,,,,35,1,141,1,,,,,367.65249270002823,,367.6393138000276,367.65249270002823,368.65271719999146,368.65271719999146,368.65271719999146,368.65271719999146,368.65271719999146,369.65235889999894,369.65235889999894,370.3708193000057,v,1,0.7150327999843284,None,,,,,,,,,,,,,,,04,001,2025-10-03_15h34.13.641,motorselection,,2025.1.1,60.01205041367239,2025-10-03 15h34.27.861727 +0530,
50,c,142,2,35,c,1,0.4920257999910973,None,,,,,35,2,142,2,,,,,370.3855389000382,,370.37242630001856,370.3855389000382,371.3855787999928,371.3855787999928,371.3855787999928,371.3855787999928,371.3855787999928,372.38545140001224,372.38545140001224,372.8879576000036,c,1,0.4920257999910973,None,,,,,,,,,,,,,,,04,001,2025-10-03_15h34.13.641,motorselection,,2025.1.1,60.01205041367239,2025-10-03 15h34.27.861727 +0530,
-150,z,143,3,35,z,1,5.236368499987293,None,,,,,35,3,143,3,,,,,372.90204449999146,,372.8892625000444,372.90204449999146,373.9020278000389,373.9020278000389,373.9020278000389,373.9020278000389,373.9020278000389,374.90175940003246,374.90175940003246,380.1526113,z,1,5.236368499987293,None,,,,,,,,,,,,,,,04,001,2025-10-03_15h34.13.641,motorselection,,2025.1.1,60.01205041367239,2025-10-03 15h34.27.861727 +0530,
-50,x,144,0,36,x,1,0.3977154999738559,None,,,,,36,0,144,0,,,,,380.1677941000089,,380.15373449999606,380.1677941000089,381.1679771000054,381.1679771000054,381.1679771000054,381.1679771000054,381.1679771000054,382.1677049000282,382.1677049000282,382.5697613999946,x,1,0.3977154999738559,None,,,,,,,,,,,,,,,04,001,2025-10-03_15h34.13.641,motorselection,,2025.1.1,60.01205041367239,2025-10-03 15h34.27.861727 +0530,
150,v,145,1,36,v,1,0.3927072999649681,None,,,,,36,1,145,1,,,,,382.58450460003223,,382.5712682000012,382.58450460003223,383.58425559999887,383.58425559999887,383.58425559999887,383.58425559999887,383.58425559999887,384.58425720001105,384.58425720001105,384.98564339999575,v,1,0.3927072999649681,None,,,,,,,,,,,,,,,04,001,2025-10-03_15h34.13.641,motorselection,,2025.1.1,60.01205041367239,2025-10-03 15h34.27.861727 +0530,
50,c,146,2,36,c,1,0.40712069999426603,None,,,,,36,2,146,2,,,,,385.0010734000243,,384.98715950001497,385.0010734000243,386.00073750002775,386.00073750002775,386.00073750002775,386.00073750002775,386.00073750002775,387.00082860002294,387.00082860002294,387.41938080004184,c,1,0.40712069999426603,None,,,,,,,,,,,,,,,04,001,2025-10-03_15h34.13.641,motorselection,,2025.1.1,60.01205041367239,2025-10-03 15h34.27.861727 +0530,
-150,z,147,3,36,z,1,0.4354118999908678,None,,,,,36,3,147,3,,,,,387.433836500044,,387.42104720004136,387.433836500044,388.43378970003687,388.43378970003687,388.43378970003687,388.43378970003687,388.43378970003687,389.4336413000128,389.4336413000128,389.8851110000396,z,1,0.4354118999908678,None,,,,,,,,,,,,,,,04,001,2025-10-03_15h34.13.641,motorselection,,2025.1.1,60.01205041367239,2025-10-03 15h34.27.861727 +0530,
-50,x,148,0,37,x,1,0.35762939997948706,None,,,,,37,0,148,0,,,,,389.9002277000109,,389.8869621999911,389.9002277000109,390.9002934000455,390.9002934000455,390.9002934000455,390.9002934000455,390.9002934000455,391.900170500041,391.900170500041,392.26813939999556,x,1,0.35762939997948706,None,,,,,,,,,,,,,,,04,001,2025-10-03_15h34.13.641,motorselection,,2025.1.1,60.01205041367239,2025-10-03 15h34.27.861727 +0530,
150,v,149,1,37,v,1,0.3919140999787487,None,,,,,37,1,149,1,,,,,392.28337070002453,,392.2692819000222,392.28337070002453,393.283305799996,393.283305799996,393.283305799996,393.283305799996,393.283305799996,394.28341309999814,394.28341309999814,394.68495429999894,v,1,0.3919140999787487,None,,,,,,,,,,,,,,,04,001,2025-10-03_15h34.13.641,motorselection,,2025.1.1,60.01205041367239,2025-10-03 15h34.27.861727 +0530,
50,c,150,2,37,c,1,0.8312503999914043,None,,,,,37,2,150,2,,,,,394.69977200002177,,394.68739150004694,394.69977200002177,395.69964990002336,395.69964990002336,395.69964990002336,395.69964990002336,395.69964990002336,396.69975780003006,396.69975780003006,397.5347765000188,c,1,0.8312503999914043,None,,,,,,,,,,,,,,,04,001,2025-10-03_15h34.13.641,motorselection,,2025.1.1,60.01205041367239,2025-10-03 15h34.27.861727 +0530,
-150,z,151,3,37,z,1,0.5412279000156559,None,,,,,37,3,151,3,,,,,397.5495776000316,,397.53605680004694,397.5495776000316,398.5493371000048,398.5493371000048,398.5493371000048,398.5493371000048,398.5493371000048,399.5494600000093,399.5494600000093,400.10274990001926,z,1,0.5412279000156559,None,,,,,,,,,,,,,,,04,001,2025-10-03_15h34.13.641,motorselection,,2025.1.1,60.01205041367239,2025-10-03 15h34.27.861727 +0530,
-50,x,152,0,38,x,1,0.508948800037615,None,,,,,38,0,152,0,,,,,400.11602800001856,,400.1041544000036,400.11602800001856,401.1160031000036,401.1160031000036,401.1160031000036,401.1160031000036,401.1160031000036,402.1158364000148,402.1158364000148,402.63411169999745,x,1,0.508948800037615,None,,,,,,,,,,,,,,,04,001,2025-10-03_15h34.13.641,motorselection,,2025.1.1,60.01205041367239,2025-10-03 15h34.27.861727 +0530,
150,v,153,1,38,v,1,0.44816179998451844,None,,,,,38,1,153,1,,,,,402.6494462999981,,402.6353669000091,402.6494462999981,403.6489480000455,403.6489480000455,403.6489480000455,403.6489480000455,403.6489480000455,404.648868600023,404.648868600023,405.0986275000032,v,1,0.44816179998451844,None,,,,,,,,,,,,,,,04,001,2025-10-03_15h34.13.641,motorselection,,2025.1.1,60.01205041367239,2025-10-03 15h34.27.861727 +0530,
50,c,154,2,38,c,1,0.3517355999792926,None,,,,,38,2,154,2,,,,,405.1148502000142,,405.09890889999224,405.1148502000142,406.097905200033,406.097905200033,406.097905200033,406.097905200033,406.1145669000107,407.09866360004526,407.09866360004526,407.4675405000453,c,1,0.3517355999792926,None,,,,,,,,,,,,,,,04,001,2025-10-03_15h34.13.641,motorselection,,2025.1.1,60.01205041367239,2025-10-03 15h34.27.861727 +0530,
-150,z,155,3,38,z,1,0.7051938999793492,None,,,,,38,3,155,3,,,,,407.481890199997,,407.46947509999154,407.481890199997,408.4819807000458,408.4819807000458,408.4819807000458,408.4819807000458,408.4819807000458,409.48162070004037,409.48162070004037,410.1996659000288,z,1,0.7051938999793492,None,,,,,,,,,,,,,,,04,001,2025-10-03_15h34.13.641,motorselection,,2025.1.1,60.01205041367239,2025-10-03 15h34.27.861727 +0530,
-50,x,156,0,39,x,1,0.7872272000531666,None,,,,,39,0,156,0,,,,,410.21488530002534,,410.2017163000419,410.21488530002534,411.21441160002723,411.21441160002723,411.21441160002723,411.21441160002723,411.21441160002723,412.2147718000342,412.2147718000342,413.0162693000166,x,1,0.7872272000531666,None,,,,,,,,,,,,,,,04,001,2025-10-03_15h34.13.641,motorselection,,2025.1.1,60.01205041367239,2025-10-03 15h34.27.861727 +0530,
150,v,157,1,39,v,1,0.3542907999944873,None,,,,,39,1,157,1,,,,,413.0312502000015,,413.0176419999916,413.0312502000015,414.03120329999365,414.03120329999365,414.03120329999365,414.03120329999365,414.03120329999365,415.0313362000161,415.0313362000161,415.39950639999006,v,1,0.3542907999944873,None,,,,,,,,,,,,,,,04,001,2025-10-03_15h34.13.641,motorselection,,2025.1.1,60.01205041367239,2025-10-03 15h34.27.861727 +0530,
50,c,158,2,39,c,1,0.2799940000404604,None,,,,,39,2,158,2,,,,,415.4144322000211,,415.4009189000353,415.4144322000211,416.4143111000303,416.4143111000303,416.4143111000303,416.4143111000303,416.4143111000303,417.4142178000184,417.4142178000184,417.6989658999955,c,1,0.2799940000404604,None,,,,,,,,,,,,,,,04,001,2025-10-03_15h34.13.641,motorselection,,2025.1.1,60.01205041367239,2025-10-03 15h34.27.861727 +0530,
-150,z,159,3,39,z,1,0.15747679997002706,None,,,,,39,3,159,3,,,,,417.71414140000707,,417.700261400023,417.71414140000707,418.7141108000069,418.7141108000069,418.7141108000069,418.7141108000069,418.7141108000069,419.71401340002194,419.71401340002194,419.8823382999981,z,1,0.15747679997002706,None,,,,,,,,,,,,,,,04,001,2025-10-03_15h34.13.641,motorselection,,2025.1.1,60.01205041367239,2025-10-03 15h34.27.861727 +0530,
-50,x,160,0,40,x,1,0.3440297999768518,None,,,,,40,0,160,0,,,,,419.89733500004513,,419.88376420002896,419.89733500004513,420.89708790002624,420.89708790002624,420.89708790002624,420.89708790002624,420.89708790002624,421.89650880004046,421.89650880004046,422.2481442000135,x,1,0.3440297999768518,None,,,,,,,,,,,,,,,04,001,2025-10-03_15h34.13.641,motorselection,,2025.1.1,60.01205041367239,2025-10-03 15h34.27.861727 +0530,
150,v,161,1,40,v,1,0.3839516000007279,None,,,,,40,1,161,1,,,,,422.26347669999814,,422.2493339999928,422.26347669999814,423.26367020001635,423.26367020001635,423.26367020001635,423.26367020001635,423.26367020001635,424.2636526999995,424.2636526999995,424.6649779000436,v,1,0.3839516000007279,None,,,,,,,,,,,,,,,04,001,2025-10-03_15h34.13.641,motorselection,,2025.1.1,60.01205041367239,2025-10-03 15h34.27.861727 +0530,
50,c,162,2,40,c,1,0.7006448999745771,None,,,,,40,2,162,2,,,,,424.6801909999922,,424.66638320003403,424.6801909999922,425.68018540000776,425.68018540000776,425.68018540000776,425.68018540000776,425.68018540000776,426.68007750000106,426.68007750000106,427.3963076000218,c,1,0.7006448999745771,None,,,,,,,,,,,,,,,04,001,2025-10-03_15h34.13.641,motorselection,,2025.1.1,60.01205041367239,2025-10-03 15h34.27.861727 +0530,
-150,z,163,3,40,z,1,0.18659080000361428,None,,,,,40,3,163,3,,,,,427.412406700023,,427.3967752000317,427.412406700023,428.3973593999981,428.3973593999981,428.3973593999981,428.3973593999981,428.41314930003136,429.39642240002286,429.39642240002286,429.59807599999476,z,1,0.18659080000361428,None,,,,,,,,,,,,,,,04,001,2025-10-03_15h34.13.641,motorselection,,2025.1.1,60.01205041367239,2025-10-03 15h34.27.861727 +0530,
-50,x,164,0,41,x,1,1.9513917000149377,None,,,,,41,0,164,0,,,,,429.6130918000126,,429.6004577000276,429.6130918000126,430.6128983999952,430.6128983999952,430.6128983999952,430.6128983999952,430.6128983999952,431.61248870001873,431.61248870001873,433.5804769000388,x,1,1.9513917000149377,None,,,,,,,,,,,,,,,04,001,2025-10-03_15h34.13.641,motorselection,,2025.1.1,60.01205041367239,2025-10-03 15h34.27.861727 +0530,
150,v,165,1,41,v,1,0.6332136999699287,None,,,,,41,1,165,1,,,,,433.5954224000452,,433.58184620004613,433.5954224000452,434.5952283000224,434.5952283000224,434.5952283000224,434.5952283000224,434.5952283000224,435.59496230003424,435.59496230003424,436.22887620003894,v,1,0.6332136999699287,None,,,,,,,,,,,,,,,04,001,2025-10-03_15h34.13.641,motorselection,,2025.1.1,60.01205041367239,2025-10-03 15h34.27.861727 +0530,
50,c,166,2,41,c,1,0.616972399991937,None,,,,,41,2,166,2,,,,,436.24485870002536,,436.2293589000474,436.24485870002536,437.22804900002666,437.22804900002666,437.22804900002666,437.22804900002666,437.2449709000066,438.2280521999928,438.2280521999928,438.8620075000217,c,1,0.616972399991937,None,,,,,,,,,,,,,,,04,001,2025-10-03_15h34.13.641,motorselection,,2025.1.1,60.01205041367239,2025-10-03 15h34.27.861727 +0530,
-150,z,167,3,41,z,1,0.8158695000456646,None,,,,,41,3,167,3,,,,,438.8779625000316,,438.8622852000408,438.8779625000316,439.861730500008,439.861730500008,439.861730500008,439.861730500008,439.87835270003416,440.8616905999952,440.8616905999952,441.6794249000377,z,1,0.8158695000456646,None,,,,,,,,,,,,,,,04,001,2025-10-03_15h34.13.641,motorselection,,2025.1.1,60.01205041367239,2025-10-03 15h34.27.861727 +0530,
-50,x,168,0,42,x,1,0.40154099999926984,None,,,,,42,0,168,0,,,,,441.694966900046,,441.68046460003825,441.694966900046,442.69474450004054,442.69474450004054,442.69474450004054,442.69474450004054,442.69474450004054,443.6949442999903,443.6949442999903,444.11274690000573,x,1,0.40154099999926984,None,,,,,,,,,,,,,,,04,001,2025-10-03_15h34.13.641,motorselection,,2025.1.1,60.01205041367239,2025-10-03 15h34.27.861727 +0530,
150,v,169,1,42,v,1,0.6428439000155777,None,,,,,42,1,169,1,,,,,444.1281789999921,,444.11378620000323,444.1281789999921,445.12813750002533,445.12813750002533,445.12813750002533,445.12813750002533,445.12813750002533,446.1280628000386,446.1280628000386,446.7791828000336,v,1,0.6428439000155777,None,,,,,,,,,,,,,,,04,001,2025-10-03_15h34.13.641,motorselection,,2025.1.1,60.01205041367239,2025-10-03 15h34.27.861727 +0530,
50,c,170,2,42,c,1,0.4620215999893844,None,,,,,42,2,170,2,,,,,446.7944450000068,,446.78065249999054,446.7944450000068,447.79457840003306,447.79457840003306,447.79457840003306,447.79457840003306,447.79457840003306,448.79445660003694,448.79445660003694,449.2626921000192,c,1,0.4620215999893844,None,,,,,,,,,,,,,,,04,001,2025-10-03_15h34.13.641,motorselection,,2025.1.1,60.01205041367239,2025-10-03 15h34.27.861727 +0530,
-150,z,171,3,42,z,1,0.35045230004470795,None,,,,,42,3,171,3,,,,,449.2776053000125,,449.2639629000332,449.2776053000125,450.2775502000004,450.2775502000004,450.2775502000004,450.2775502000004,450.2775502000004,451.2776193000027,451.2776193000027,451.6455675000325,z,1,0.35045230004470795,None,,,,,,,,,,,,,,,04,001,2025-10-03_15h34.13.641,motorselection,,2025.1.1,60.01205041367239,2025-10-03 15h34.27.861727 +0530,
-50,x,172,0,43,x,1,0.43343569996068254,None,,,,,43,0,172,0,,,,,451.6607909000013,,451.6467561000027,451.6607909000013,452.66079210001044,452.66079210001044,452.66079210001044,452.66079210001044,452.66079210001044,453.66065259999596,453.66065259999596,454.09597830002895,x,1,0.43343569996068254,None,,,,,,,,,,,,,,,04,001,2025-10-03_15h34.13.641,motorselection,,2025.1.1,60.01205041367239,2025-10-03 15h34.27.861727 +0530,
150,v,173,1,43,v,1,0.6180445000063628,None,,,,,43,1,173,1,,,,,454.1105967000476,,454.0972240000265,454.1105967000476,455.1105494000367,455.1105494000367,455.1105494000367,455.1105494000367,455.1105494000367,456.11023570003454,456.11023570003454,456.74537409999175,v,1,0.6180445000063628,None,,,,,,,,,,,,,,,04,001,2025-10-03_15h34.13.641,motorselection,,2025.1.1,60.01205041367239,2025-10-03 15h34.27.861727 +0530,
50,c,174,2,43,c,1,0.6399114000378177,None,,,,,43,2,174,2,,,,,456.76025039999513,,456.7467377000139,456.76025039999513,457.7603605000186,457.7603605000186,457.7603605000186,457.7603605000186,457.7603605000186,458.7601092000259,458.7601092000259,459.41158150002593,c,1,0.6399114000378177,None,,,,,,,,,,,,,,,04,001,2025-10-03_15h34.13.641,motorselection,,2025.1.1,60.01205041367239,2025-10-03 15h34.27.861727 +0530,
-150,z,175,3,43,x,0,0.2479643000406213,None,,,,,43,3,175,3,,,,,459.42706340004224,,459.4129127000342,459.42706340004224,460.42666050000116,460.42666050000116,460.42666050000116,460.42666050000116,460.42666050000116,461.42652340000495,461.42652340000495,461.67800330003956,x,0,0.2479643000406213,None,,,,,,,,,,,,,,,04,001,2025-10-03_15h34.13.641,motorselection,,2025.1.1,60.01205041367239,2025-10-03 15h34.27.861727 +0530,
-50,x,176,0,44,x,1,0.5537178000085987,None,,,,,44,0,176,0,,,,,461.6930008000345,,461.67933549999725,461.6930008000345,462.6930046000052,462.6930046000052,462.6930046000052,462.6930046000052,462.6930046000052,463.6929128000047,463.6929128000047,464.2613692000159,x,1,0.5537178000085987,None,,,,,,,,,,,,,,,04,001,2025-10-03_15h34.13.641,motorselection,,2025.1.1,60.01205041367239,2025-10-03 15h34.27.861727 +0530,
150,v,177,1,44,v,1,0.44932220003101975,None,,,,,44,1,177,1,,,,,464.2763290000148,,464.26262110000243,464.2763290000148,465.2761104000383,465.2761104000383,465.2761104000383,465.2761104000383,465.2761104000383,466.2759469000157,466.2759469000157,466.7275467000436,v,1,0.44932220003101975,None,,,,,,,,,,,,,,,04,001,2025-10-03_15h34.13.641,motorselection,,2025.1.1,60.01205041367239,2025-10-03 15h34.27.861727 +0530,
50,c,178,2,44,c,1,0.4899806000175886,None,,,,,44,2,178,2,,,,,466.7424962000223,,466.72905980004,466.7424962000223,467.74266450002324,467.74266450002324,467.74266450002324,467.74266450002324,467.74266450002324,468.742339599994,468.742339599994,469.2451226999983,c,1,0.4899806000175886,None,,,,,,,,,,,,,,,04,001,2025-10-03_15h34.13.641,motorselection,,2025.1.1,60.01205041367239,2025-10-03 15h34.27.861727 +0530,
-150,z,179,3,44,z,1,0.709812699991744,None,,,,,44,3,179,3,,,,,469.25906880002003,,469.2475245000096,469.25906880002003,470.2591106000473,470.2591106000473,470.2591106000473,470.2591106000473,470.2591106000473,471.25889800000004,471.25889800000004,471.9767935000127,z,1,0.709812699991744,None,,,,,,,,,,,,,,,04,001,2025-10-03_15h34.13.641,motorselection,,2025.1.1,60.01205041367239,2025-10-03 15h34.27.861727 +0530,
-50,x,180,0,45,x,1,0.37135630002012476,None,,,,,45,0,180,0,,,,,471.9921634999919,,471.9782919000136,471.9921634999919,472.9919052000041,472.9919052000041,472.9919052000041,472.9919052000041,472.9919052000041,473.99183960002847,473.99183960002847,474.37655819999054,x,1,0.37135630002012476,None,,,,,,,,,,,,,,,04,001,2025-10-03_15h34.13.641,motorselection,,2025.1.1,60.01205041367239,2025-10-03 15h34.27.861727 +0530,
150,v,181,1,45,v,1,0.715233700000681,None,,,,,45,1,181,1,,,,,474.39165380003396,,474.37778330000583,474.39165380003396,475.3918358000228,475.3918358000228,475.3918358000228,475.3918358000228,475.3918358000228,476.39171880000504,476.39171880000504,477.1099710999988,v,1,0.715233700000681,None,,,,,,,,,,,,,,,04,001,2025-10-03_15h34.13.641,motorselection,,2025.1.1,60.01205041367239,2025-10-03 15h34.27.861727 +0530,
50,c,182,2,45,c,1,0.24921949999406934,None,,,,,45,2,182,2,,,,,477.12497040000744,,477.11124669999117,477.12497040000744,478.12488160002977,478.12488160002977,478.12488160002977,478.12488160002977,478.12488160002977,479.124689600023,479.124689600023,479.37699980003526,c,1,0.24921949999406934,None,,,,,,,,,,,,,,,04,001,2025-10-03_15h34.13.641,motorselection,,2025.1.1,60.01205041367239,2025-10-03 15h34.27.861727 +0530,
-150,z,183,3,45,z,1,0.4029699999955483,None,,,,,45,3,183,3,,,,,479.3913285000017,,479.37890480004717,479.3913285000017,480.3912674000021,480.3912674000021,480.3912674000021,480.3912674000021,480.3912674000021,481.39096039999276,481.39096039999276,481.80935920000775,z,1,0.4029699999955483,None,,,,,,,,,,,,,,,04,001,2025-10-03_15h34.13.641,motorselection,,2025.1.1,60.01205041367239,2025-10-03 15h34.27.861727 +0530,
-50,x,184,0,46,x,1,0.217781399958767,None,,,,,46,0,184,0,,,,,481.8243430000148,,481.81135010003345,481.8243430000148,482.824307700037,482.824307700037,482.824307700037,482.824307700037,482.824307700037,483.8241349000018,483.8241349000018,484.0598069000407,x,1,0.217781399958767,None,,,,,,,,,,,,,,,04,001,2025-10-03_15h34.13.641,motorselection,,2025.1.1,60.01205041367239,2025-10-03 15h34.27.861727 +0530,
150,v,185,1,46,v,1,0.09868150000693277,None,,,,,46,1,185,1,,,,,484.0741410999908,,484.06148650002433,484.0741410999908,485.0740609000204,485.0740609000204,485.0740609000204,485.0740609000204,485.0740609000204,486.0741121000028,486.0741121000028,486.1754160000128,v,1,0.09868150000693277,None,,,,,,,,,,,,,,,04,001,2025-10-03_15h34.13.641,motorselection,,2025.1.1,60.01205041367239,2025-10-03 15h34.27.861727 +0530,
50,c,186,2,46,c,1,0.14674930000910535,None,,,,,46,2,186,2,,,,,486.19067060004454,,486.176646500011,486.19067060004454,487.1905112999957,487.1905112999957,487.1905112999957,487.1905112999957,487.1905112999957,488.1901193000376,488.1901193000376,488.3420028000255,c,1,0.14674930000910535,None,,,,,,,,,,,,,,,04,001,2025-10-03_15h34.13.641,motorselection,,2025.1.1,60.01205041367239,2025-10-03 15h34.27.861727 +0530,
-150,z,187,3,46,x,0,0.11412470001960173,None,,,,,46,3,187,3,,,,,488.35742070002016,,488.3432996000047,488.35742070002016,489.3570473000291,489.3570473000291,489.3570473000291,489.3570473000291,489.3570473000291,490.35696510004345,490.35696510004345,490.4752548999968,x,0,0.11412470001960173,None,,,,,,,,,,,,,,,04,001,2025-10-03_15h34.13.641,motorselection,,2025.1.1,60.01205041367239,2025-10-03 15h34.27.861727 +0530,
-50,x,188,0,47,x,1,0.3467442999826744,None,,,,,47,0,188,0,,,,,490.4902628000127,,490.4765482000075,490.4902628000127,491.490154500003,491.490154500003,491.490154500003,491.490154500003,491.490154500003,492.48999420000473,492.48999420000473,492.84145270002773,x,1,0.3467442999826744,None,,,,,,,,,,,,,,,04,001,2025-10-03_15h34.13.641,motorselection,,2025.1.1,60.01205041367239,2025-10-03 15h34.27.861727 +0530,
150,v,189,1,47,v,1,0.4627011999837123,None,,,,,47,1,189,1,,,,,492.8565190000227,,492.84287819999736,492.8565190000227,493.8566295999917,493.8566295999917,493.8566295999917,493.8566295999917,493.8566295999917,494.85651230002986,494.85651230002986,495.3255095999921,v,1,0.4627011999837123,None,,,,,,,,,,,,,,,04,001,2025-10-03_15h34.13.641,motorselection,,2025.1.1,60.01205041367239,2025-10-03 15h34.27.861727 +0530,
50,c,190,2,47,c,1,0.5180591999669559,None,,,,,47,2,190,2,,,,,495.3397654000437,,495.3270578000229,495.3397654000437,496.33972620003624,496.33972620003624,496.33972620003624,496.33972620003624,496.33972620003624,497.3396003000089,497.3396003000089,497.8743563000462,c,1,0.5180591999669559,None,,,,,,,,,,,,,,,04,001,2025-10-03_15h34.13.641,motorselection,,2025.1.1,60.01205041367239,2025-10-03 15h34.27.861727 +0530,
-150,z,191,3,47,z,1,0.45673910004552454,None,,,,,47,3,191,3,,,,,497.8895216000383,,497.8755677000154,497.8895216000383,498.8894464999903,498.8894464999903,498.8894464999903,498.8894464999903,498.8894464999903,499.8884646000224,499.8884646000224,500.3557922000182,z,1,0.45673910004552454,None,,,,,,,,,,,,,,,04,001,2025-10-03_15h34.13.641,motorselection,,2025.1.1,60.01205041367239,2025-10-03 15h34.27.861727 +0530,
-50,x,192,0,48,x,1,0.3923864000244066,None,,,,,48,0,192,0,,,,,500.3718311000266,,500.35604660003446,500.3718311000266,501.3551806000178,501.3551806000178,501.3551806000178,501.3551806000178,501.3719921000302,502.3550828000298,502.3550828000298,502.7559551000013,x,1,0.3923864000244066,None,,,,,,,,,,,,,,,04,001,2025-10-03_15h34.13.641,motorselection,,2025.1.1,60.01205041367239,2025-10-03 15h34.27.861727 +0530,
150,v,193,1,48,v,1,0.3504233999992721,None,,,,,48,1,193,1,,,,,502.77144280000357,,502.7567135000136,502.77144280000357,503.75493039999856,503.75493039999856,503.75493039999856,503.75493039999856,503.77160770003684,504.7713730999967,504.7713730999967,505.13873559999047,v,1,0.3504233999992721,None,,,,,,,,,,,,,,,04,001,2025-10-03_15h34.13.641,motorselection,,2025.1.1,60.01205041367239,2025-10-03 15h34.27.861727 +0530,
50,c,194,2,48,c,1,0.30342940002446994,None,,,,,48,2,194,2,,,,,505.1547356999945,,505.1389954999904,505.1547356999945,506.1383311999962,506.1383311999962,506.1383311999962,506.1383311999962,506.15499660000205,507.13824100000784,507.13824100000784,507.4565125000081,c,1,0.30342940002446994,None,,,,,,,,,,,,,,,04,001,2025-10-03_15h34.13.641,motorselection,,2025.1.1,60.01205041367239,2025-10-03 15h34.27.861727 +0530,
-150,z,195,3,48,z,1,0.028438500012271106,None,,,,,48,3,195,3,,,,,507.47136840003077,,507.4578287000186,507.47136840003077,508.4715218000347,508.4715218000347,508.4715218000347,508.4715218000347,508.4715218000347,509.47110200003954,509.47110200003954,509.50598449999234,z,1,0.028438500012271106,None,,,,,,,,,,,,,,,04,001,2025-10-03_15h34.13.641,motorselection,,2025.1.1,60.01205041367239,2025-10-03 15h34.27.861727 +0530,
-50,x,196,0,49,x,1,0.3361560000339523,None,,,,,49,0,196,0,,,,,509.5215106999967,,509.5069064000272,509.5215106999967,510.52160330000333,510.52160330000333,510.52160330000333,510.52160330000333,510.52160330000333,511.52161779999733,511.52161779999733,511.87260659999447,x,1,0.3361560000339523,None,,,,,,,,,,,,,,,04,001,2025-10-03_15h34.13.641,motorselection,,2025.1.1,60.01205041367239,2025-10-03 15h34.27.861727 +0530,
150,v,197,1,49,v,1,0.05712900002254173,None,,,,,49,1,197,1,,,,,511.8880962000112,,511.8736435000319,511.8880962000112,512.8880478999927,512.8880478999927,512.8880478999927,512.8880478999927,512.8880478999927,513.887942500005,513.887942500005,513.9557414000155,v,1,0.05712900002254173,None,,,,,,,,,,,,,,,04,001,2025-10-03_15h34.13.641,motorselection,,2025.1.1,60.01205041367239,2025-10-03 15h34.27.861727 +0530,
50,c,198,2,49,c,1,0.5612563000177033,None,,,,,49,2,198,2,,,,,513.9712221000227,,513.956821800035,513.9712221000227,514.9712209000136,514.9712209000136,514.9712209000136,514.9712209000136,514.9712209000136,515.9710607000161,515.9710607000161,516.5389714000048,c,1,0.5612563000177033,None,,,,,,,,,,,,,,,04,001,2025-10-03_15h34.13.641,motorselection,,2025.1.1,60.01205041367239,2025-10-03 15h34.27.861727 +0530,
-150,z,199,3,49,x,0,0.06458200002089143,None,,,,,49,3,199,3,,,,,516.5542972999974,,516.5403291000403,516.5542972999974,517.5542432999937,517.5542432999937,517.5542432999937,517.5542432999937,517.5542432999937,518.5541812000447,518.5541812000447,518.6243549000355,x,0,0.06458200002089143,None,,,,,,,,,,,,,,,04,001,2025-10-03_15h34.13.641,motorselection,,2025.1.1,60.01205041367239,2025-10-03 15h34.27.861727 +0530,
50,c,0,0,0,,,,,c,1,0.7879155999980867,None,,,,,0,0,0,2,518.7014922000235,,,,,,,,,,,,,,,,518.6883054000209,518.7014922000235,519.6466088000452,519.6466088000452,519.6466088000452,519.6466088000452,519.7038979000063,520.6370648000157,520.6370648000157,521.4377117000404,c,1,0.7879155999980867,None,04,001,2025-10-03_15h34.13.641,motorselection,,2025.1.1,60.01205041367239,2025-10-03 15h34.27.861727 +0530,
50,c,1,1,1,,,,,c,1,0.4518566000042483,None,,,,,1,1,1,2,521.4534043000313,,,,,,,,,,,,,,,,521.4386435000342,521.4534043000313,522.4533148999908,522.4533148999908,522.4533148999908,522.4533148999908,522.4533148999908,523.4532496000174,523.4532496000174,523.9211321000475,c,1,0.4518566000042483,None,04,001,2025-10-03_15h34.13.641,motorselection,,2025.1.1,60.01205041367239,2025-10-03 15h34.27.861727 +0530,
-50,x,2,2,0,,,,,x,1,0.446091299992986,None,,,,,0,2,2,0,523.9365898999968,,,,,,,,,,,,,,,,523.9221840000246,523.9365898999968,524.936694300035,524.936694300035,524.936694300035,524.936694300035,524.936694300035,525.9366061000037,525.9366061000037,526.3880301000318,x,1,0.446091299992986,None,04,001,2025-10-03_15h34.13.641,motorselection,,2025.1.1,60.01205041367239,2025-10-03 15h34.27.861727 +0530,
50,c,3,3,2,,,,,c,1,0.45301080000353977,None,,,,,2,3,3,2,526.4032900000457,,,,,,,,,,,,,,,,526.3893163000466,526.4032900000457,527.4031370000448,527.4031370000448,527.4031370000448,527.4031370000448,527.4031370000448,528.4028454000363,528.4028454000363,528.8715691000107,c,1,0.45301080000353977,None,04,001,2025-10-03_15h34.13.641,motorselection,,2025.1.1,60.01205041367239,2025-10-03 15h34.27.861727 +0530,
-150,z,4,4,0,,,,,z,1,0.423080500040669,None,,,,,0,4,4,3,528.8863957000431,,,,,,,,,,,,,,,,528.8729010000243,528.8863957000431,529.8863010000205,529.8863010000205,529.8863010000205,529.8863010000205,529.8863010000205,530.8861995000043,530.8861995000043,531.3211706000147,z,1,0.423080500040669,None,04,001,2025-10-03_15h34.13.641,motorselection,,2025.1.1,60.01205041367239,2025-10-03 15h34.27.861727 +0530,
150,v,5,5,0,,,,,v,1,0.5190931999823079,None,,,,,0,5,5,1,531.3361635000329,,,,,,,,,,,,,,,,531.3224768000073,531.3361635000329,532.3360591999954,532.3360591999954,532.3360591999954,532.3360591999954,532.3360591999954,533.3359813000425,533.3359813000425,533.8708194000064,v,1,0.5190931999823079,None,04,001,2025-10-03_15h34.13.641,motorselection,,2025.1.1,60.01205041367239,2025-10-03 15h34.27.861727 +0530,
-150,z,6,6,1,,,,,z,1,0.8982186000212096,None,,,,,1,6,6,3,533.8859020000091,,,,,,,,,,,,,,,,533.8721446000272,533.8859020000091,534.8857987000374,534.8857987000374,534.8857987000374,534.8857987000374,534.8857987000374,535.8857295000344,535.8857295000344,536.787309300038,z,1,0.8982186000212096,None,04,001,2025-10-03_15h34.13.641,motorselection,,2025.1.1,60.01205041367239,2025-10-03 15h34.27.861727 +0530,
150,v,7,7,1,,,,,v,1,0.5131526999757625,None,,,,,1,7,7,1,536.8022737000138,,,,,,,,,,,,,,,,536.7885621000314,536.8022737000138,537.802021600015,537.802021600015,537.802021600015,537.802021600015,537.802021600015,538.8022170000477,538.8022170000477,539.320431900036,v,1,0.5131526999757625,None,04,001,2025-10-03_15h34.13.641,motorselection,,2025.1.1,60.01205041367239,2025-10-03 15h34.27.861727 +0530,
-50,x,8,8,1,,,,,x,1,0.4814240999985486,None,,,,,1,8,8,0,539.3353669000207,,,,,,,,,,,,,,,,539.3219821000239,539.3353669000207,540.3353658000124,540.3353658000124,540.3353658000124,540.3353658000124,540.3353658000124,541.3350905000116,541.3350905000116,541.8199764000019,x,1,0.4814240999985486,None,04,001,2025-10-03_15h34.13.641,motorselection,,2025.1.1,60.01205041367239,2025-10-03 15h34.27.861727 +0530,
50,c,9,9,3,,,,,c,1,0.8747637000051327,None,,,,,3,9,9,2,541.835044300009,,,,,,,,,,,,,,,,541.8214405000326,541.835044300009,542.835054300027,542.835054300027,542.835054300027,542.835054300027,542.835054300027,543.8349257000373,543.8349257000373,544.7196794000338,c,1,0.8747637000051327,None,04,001,2025-10-03_15h34.13.641,motorselection,,2025.1.1,60.01205041367239,2025-10-03 15h34.27.861727 +0530,
-150,z,10,10,2,,,,,z,1,0.4249739999650046,None,,,,,2,10,10,3,544.7347132000141,,,,,,,,,,,,,,,,544.721101800038,544.7347132000141,545.7346451000194,545.7346451000194,545.7346451000194,545.7346451000194,545.7346451000194,546.7346039999975,546.7346039999975,547.1691537000006,z,1,0.4249739999650046,None,04,001,2025-10-03_15h34.13.641,motorselection,,2025.1.1,60.01205041367239,2025-10-03 15h34.27.861727 +0530,
-150,z,11,11,3,,,,,z,1,0.7156678999890573,None,,,,,3,11,11,3,547.1845607000287,,,,,,,,,,,,,,,,547.1704080000054,547.1845607000287,548.1844291000161,548.1844291000161,548.1844291000161,548.1844291000161,548.1844291000161,549.184407200024,549.184407200024,549.9025037999963,z,1,0.7156678999890573,None,04,001,2025-10-03_15h34.13.641,motorselection,,2025.1.1,60.01205041367239,2025-10-03 15h34.27.861727 +0530,
50,c,12,12,4,,,,,c,1,0.5367358999792486,None,,,,,4,12,12,2,549.917673900025,,,,,,,,,,,,,,,,549.9039362000185,549.917673900025,550.917567800032,550.917567800032,550.917567800032,550.917567800032,550.917567800032,551.9176001000451,551.9176001000451,552.4689827000257,c,1,0.5367358999792486,None,04,001,2025-10-03_15h34.13.641,motorselection,,2025.1.1,60.01205041367239,2025-10-03 15h34.27.861727 +0530,
50,c,13,13,5,,,,,c,1,0.9846614000271074,None,,,,,5,13,13,2,552.4840370000456,,,,,,,,,,,,,,,,552.4703234999906,552.4840370000456,553.4838423000183,553.4838423000183,553.4838423000183,553.4838423000183,553.4838423000183,554.4838783000014,554.4838783000014,555.4850760000409,c,1,0.9846614000271074,None,04,001,2025-10-03_15h34.13.641,motorselection,,2025.1.1,60.01205041367239,2025-10-03 15h34.27.861727 +0530,
-150,z,14,14,4,,,,,z,1,0.7254985000472516,None,,,,,4,14,14,3,555.5004358000006,,,,,,,,,,,,,,,,555.4864019000088,555.5004358000006,556.5003125999938,556.5003125999938,556.5003125999938,556.5003125999938,556.5003125999938,557.5001994000049,557.5001994000049,558.2349161000457,z,1,0.7254985000472516,None,04,001,2025-10-03_15h34.13.641,motorselection,,2025.1.1,60.01205041367239,2025-10-03 15h34.27.861727 +0530,
-50,x,15,15,2,,,,,x,1,0.43067500001052395,None,,,,,2,15,15,0,558.2501244000159,,,,,,,,,,,,,,,,558.2362190000131,558.2501244000159,559.2501254000235,559.2501254000235,559.2501254000235,559.2501254000235,559.2501254000235,560.2498824000359,560.2498824000359,560.6847950000083,x,1,0.43067500001052395,None,04,001,2025-10-03_15h34.13.641,motorselection,,2025.1.1,60.01205041367239,2025-10-03 15h34.27.861727 +0530,
150,v,16,16,2,,,,,v,1,0.5032897999626584,None,,,,,2,16,16,1,560.6997999000014,,,,,,,,,,,,,,,,560.686114900047,560.6997999000014,561.6998207000433,561.6998207000433,561.6998207000433,561.6998207000433,561.6998207000433,562.6997318000067,562.6997318000067,563.2179918000475,v,1,0.5032897999626584,None,04,001,2025-10-03_15h34.13.641,motorselection,,2025.1.1,60.01205041367239,2025-10-03 15h34.27.861727 +0530,
-50,x,17,17,3,,,,,x,1,1.0651366999954917,None,,,,,3,17,17,0,563.2329266000306,,,,,,,,,,,,,,,,563.219470400014,563.2329266000306,564.2328247000114,564.2328247000114,564.2328247000114,564.2328247000114,564.2328247000114,565.2327547000023,565.2327547000023,566.3009364000172,x,1,1.0651366999954917,None,04,001,2025-10-03_15h34.13.641,motorselection,,2025.1.1,60.01205041367239,2025-10-03 15h34.27.861727 +0530,
-50,x,18,18,4,,,,,x,1,0.9251687000505626,None,,,,,4,18,18,0,566.3160026000114,,,,,,,,,,,,,,,,566.3022759000305,566.3160026000114,567.3159150000429,567.3159150000429,567.3159150000429,567.3159150000429,567.3159150000429,568.3158289000276,568.3158289000276,569.2506383000291,x,1,0.9251687000505626,None,04,001,2025-10-03_15h34.13.641,motorselection,,2025.1.1,60.01205041367239,2025-10-03 15h34.27.861727 +0530,
-150,z,19,19,5,,,,,z,1,0.36427129997173324,None,,,,,5,19,19,3,569.2655874000047,,,,,,,,,,,,,,,,569.2521315999911,569.2655874000047,570.265606400033,570.265606400033,570.265606400033,570.265606400033,570.265606400033,571.2654994000331,571.2654994000331,571.6373032000265,z,1,0.36427129997173324,None,04,001,2025-10-03_15h34.13.641,motorselection,,2025.1.1,60.01205041367239,2025-10-03 15h34.27.861727 +0530,
-150,z,20,20,6,,,,,x,0,0.9769325000233948,None,,,,,6,20,20,3,571.648442100035,,,,,,,,,,,,,,,,571.6386200000416,571.648442100035,572.6478458000347,572.6478458000347,572.6478458000347,572.6478458000347,572.6478458000347,573.6478509000153,573.6478509000153,574.6319391000434,x,0,0.9769325000233948,None,04,001,2025-10-03_15h34.13.641,motorselection,,2025.1.1,60.01205041367239,2025-10-03 15h34.27.861727 +0530,
50,c,21,21,6,,,,,c,1,0.41131090000271797,None,,,,,6,21,21,2,574.6476489999914,,,,,,,,,,,,,,,,574.6328104000422,574.6476489999914,575.6310877000215,575.6310877000215,575.6310877000215,575.6310877000215,575.647800100036,576.6476325000403,576.6476325000403,577.0648029000149,c,1,0.41131090000271797,None,04,001,2025-10-03_15h34.13.641,motorselection,,2025.1.1,60.01205041367239,2025-10-03 15h34.27.861727 +0530,
150,v,22,22,3,,,,,v,1,0.4105168000096455,None,,,,,3,22,22,1,577.0810656000394,,,,,,,,,,,,,,,,577.0653591000009,577.0810656000394,578.0640736999922,578.0640736999922,578.0640736999922,578.0640736999922,578.0807058000355,579.06466860004,579.06466860004,579.4821312000277,v,1,0.4105168000096455,None,04,001,2025-10-03_15h34.13.641,motorselection,,2025.1.1,60.01205041367239,2025-10-03 15h34.27.861727 +0530,
150,v,23,23,4,,,,,v,1,1.3892873999429867,None,,,,,4,23,23,1,579.4976237000083,,,,,,,,,,,,,,,,579.4829599999939,579.4976237000083,580.4978546000202,580.4978546000202,580.4978546000202,580.4978546000202,580.4978546000202,581.4976599999936,581.4976599999936,582.8989123000065,v,1,1.3892873999429867,None,04,001,2025-10-03_15h34.13.641,motorselection,,2025.1.1,60.01205041367239,2025-10-03 15h34.27.861727 +0530,
50,c,24,24,7,,,,,c,1,0.4553742000134662,None,,,,,7,24,24,2,582.9142754999921,,,,,,,,,,,,,,,,582.9001765000285,582.9142754999921,583.9143060999922,583.9143060999922,583.9143060999922,583.9143060999922,583.9143060999922,584.9140212000348,584.9140212000348,585.3822996999952,c,1,0.4553742000134662,None,04,001,2025-10-03_15h34.13.641,motorselection,,2025.1.1,60.01205041367239,2025-10-03 15h34.27.861727 +0530,
-50,x,25,25,5,,,,,x,1,0.7337484000017866,None,,,,,5,25,25,0,585.3974649000447,,,,,,,,,,,,,,,,585.3835937000113,585.3974649000447,586.3972319000168,586.3972319000168,586.3972319000168,586.3972319000168,586.3972319000168,587.3972074000048,587.3972074000048,588.1490910000284,x,1,0.7337484000017866,None,04,001,2025-10-03_15h34.13.641,motorselection,,2025.1.1,60.01205041367239,2025-10-03 15h34.27.861727 +0530,
-50,x,26,26,6,,,,,x,1,0.3994028000161052,None,,,,,6,26,26,0,588.1638672000263,,,,,,,,,,,,,,,,588.1506818000344,588.1638672000263,589.1637160000391,589.1637160000391,589.1637160000391,589.1637160000391,589.1637160000391,590.163498400012,590.163498400012,590.5652367000002,x,1,0.3994028000161052,None,04,001,2025-10-03_15h34.13.641,motorselection,,2025.1.1,60.01205041367239,2025-10-03 15h34.27.861727 +0530,
-150,z,27,27,7,,,,,z,1,1.0729136999580078,None,,,,,7,27,27,3,590.5802120000008,,,,,,,,,,,,,,,,590.5666973000043,590.5802120000008,591.5801159000257,591.5801159000257,591.5801159000257,591.5801159000257,591.5801159000257,592.5800642000395,592.5800642000395,593.664404500043,z,1,1.0729136999580078,None,04,001,2025-10-03_15h34.13.641,motorselection,,2025.1.1,60.01205041367239,2025-10-03 15h34.27.861727 +0530,
-50,x,28,28,7,,,,,x,1,0.48840669996570796,None,,,,,7,28,28,0,593.6798663000227,,,,,,,,,,,,,,,,593.6654807000305,593.6798663000227,594.6798684000387,594.6798684000387,594.6798684000387,594.6798684000387,594.6798684000387,595.679589700012,595.679589700012,596.1814138999907,x,1,0.48840669996570796,None,04,001,2025-10-03_15h34.13.641,motorselection,,2025.1.1,60.01205041367239,2025-10-03 15h34.27.861727 +0530,
-150,z,29,29,8,,,,,z,1,1.4710676000104286,None,,,,,8,29,29,3,596.1963679000037,,,,,,,,,,,,,,,,596.1828026000294,596.1963679000037,597.1962232000078,597.1962232000078,597.1962232000078,597.1962232000078,597.1962232000078,598.1959451000439,598.1959451000439,599.6810932999942,z,1,1.4710676000104286,None,04,001,2025-10-03_15h34.13.641,motorselection,,2025.1.1,60.01205041367239,2025-10-03 15h34.27.861727 +0530,
150,v,30,30,5,,,,,v,1,0.5203403999912553,None,,,,,5,30,30,1,599.6958947000094,,,,,,,,,,,,,,,,599.6824760000454,599.6958947000094,600.6958146000397,600.6958146000397,600.6958146000397,600.6958146000397,600.6958146000397,601.6958005999913,601.6958005999913,602.2305398000171,v,1,0.5203403999912553,None,04,001,2025-10-03_15h34.13.641,motorselection,,2025.1.1,60.01205041367239,2025-10-03 15h34.27.861727 +0530,
50,c,31,31,8,,,,,c,1,0.6553210999700241,None,,,,,8,31,31,2,602.2457398000406,,,,,,,,,,,,,,,,602.2318627000204,602.2457398000406,603.2456991000217,603.2456991000217,603.2456991000217,603.2456991000217,603.2456991000217,604.245542699995,604.245542699995,604.9134070000146,c,1,0.6553210999700241,None,04,001,2025-10-03_15h34.13.641,motorselection,,2025.1.1,60.01205041367239,2025-10-03 15h34.27.861727 +0530,
50,c,32,32,9,,,,,c,1,0.49350219999905676,None,,,,,9,32,32,2,604.928804300027,,,,,,,,,,,,,,,,604.9147147000185,604.928804300027,605.9286941000028,605.9286941000028,605.9286941000028,605.9286941000028,605.9286941000028,606.9285669000237,606.9285669000237,607.4301893000375,c,1,0.49350219999905676,None,04,001,2025-10-03_15h34.13.641,motorselection,,2025.1.1,60.01205041367239,2025-10-03 15h34.27.861727 +0530,
150,v,33,33,6,,,,,v,1,0.5375939999939874,None,,,,,6,33,33,1,607.4451859000255,,,,,,,,,,,,,,,,607.4314570000279,607.4451859000255,608.4452393000247,608.4452393000247,608.4452393000247,608.4452393000247,608.4452393000247,609.444992100005,609.444992100005,609.9963755999925,v,1,0.5375939999939874,None,04,001,2025-10-03_15h34.13.641,motorselection,,2025.1.1,60.01205041367239,2025-10-03 15h34.27.861727 +0530,
-50,x,34,34,8,,,,,x,1,0.5086220999946818,None,,,,,8,34,34,0,610.0116131000104,,,,,,,,,,,,,,,,609.9977452000021,610.0116131000104,611.0115541000268,611.0115541000268,611.0115541000268,611.0115541000268,611.0115541000268,612.011403200042,612.011403200042,612.5295414000284,x,1,0.5086220999946818,None,04,001,2025-10-03_15h34.13.641,motorselection,,2025.1.1,60.01205041367239,2025-10-03 15h34.27.861727 +0530,
50,c,35,35,10,,,,,c,1,0.6044937000260688,None,,,,,10,35,35,2,612.544596599997,,,,,,,,,,,,,,,,612.530915100011,612.544596599997,613.5445758000133,613.5445758000133,613.5445758000133,613.5445758000133,613.5445758000133,614.5444732000469,614.5444732000469,615.1626232000417,c,1,0.6044937000260688,None,04,001,2025-10-03_15h34.13.641,motorselection,,2025.1.1,60.01205041367239,2025-10-03 15h34.27.861727 +0530,
-50,x,36,36,9,,,,,x,1,0.6532263000262901,None,,,,,9,36,36,0,615.1777969000395,,,,,,,,,,,,,,,,615.1639492000104,615.1777969000395,616.1777280000388,616.1777280000388,616.1777280000388,616.1777280000388,616.1777280000388,617.177556700015,617.177556700015,617.8456946000224,x,1,0.6532263000262901,None,04,001,2025-10-03_15h34.13.641,motorselection,,2025.1.1,60.01205041367239,2025-10-03 15h34.27.861727 +0530,
-150,z,37,37,9,,,,,z,1,0.44263270002556965,None,,,,,9,37,37,3,617.860920600011,,,,,,,,,,,,,,,,617.8470122000435,617.860920600011,618.8607289000065,618.8607289000065,618.8607289000065,618.8607289000065,618.8607289000065,619.8606220000074,619.8606220000074,620.3120962000103,z,1,0.44263270002556965,None,04,001,2025-10-03_15h34.13.641,motorselection,,2025.1.1,60.01205041367239,2025-10-03 15h34.27.861727 +0530,
-150,z,38,38,10,,,,,z,1,0.5262650999939069,None,,,,,10,38,38,3,620.3272887000348,,,,,,,,,,,,,,,,620.3134606000385,620.3272887000348,621.3268979000277,621.3268979000277,621.3268979000277,621.3268979000277,621.3268979000277,622.327056500013,622.327056500013,622.8619185000425,z,1,0.5262650999939069,None,04,001,2025-10-03_15h34.13.641,motorselection,,2025.1.1,60.01205041367239,2025-10-03 15h34.27.861727 +0530,
-150,z,39,39,11,,,,,z,1,0.39072879997547716,None,,,,,11,39,39,3,622.8770453000325,,,,,,,,,,,,,,,,622.8632705000346,622.8770453000325,623.8763881000341,623.8763881000341,623.8763881000341,623.8763881000341,623.8763881000341,624.87658500002,624.87658500002,625.2781636000145,z,1,0.39072879997547716,None,04,001,2025-10-03_15h34.13.641,motorselection,,2025.1.1,60.01205041367239,2025-10-03 15h34.27.861727 +0530,
