pos,corr_resp,thisN,thisTrialN,thisRepN,key_resp.keys,key_resp.corr,key_resp.rt,key_resp.duration,key_resp_2.keys,key_resp_2.corr,key_resp_2.rt,key_resp_2.duration,seq.thisRepN,seq.thisTrialN,seq.thisN,seq.thisIndex,ran.thisRepN,ran.thisTrialN,ran.thisN,ran.thisIndex,thisRow.t,notes,trial.started,fixation.started,line1.started,line2.started,line3.started,line4.started,fixation.stopped,probe.started,key_resp.started,trial.stopped,seq.key_resp.keys,seq.key_resp.corr,seq.key_resp.rt,seq.key_resp.duration,trial2.started,fixation2.started,lineA.started,lineB.started,lineC.started,lineD.started,fixation2.stopped,probe2.started,key_resp_2.started,trial2.stopped,ran.key_resp_2.keys,ran.key_resp_2.corr,ran.key_resp_2.rt,ran.key_resp_2.duration,participant,session,date,expName,expVersion,psychopyVersion,frameRate,expStart
-50,x,0,0,0,x,1,1.2390378,None,,,,,0,0,0,0,,,,,0.0199616,,0.0161617,0.0199616,1.0085186,1.0085186,1.0085186,1.0085186,1.0248442,2.0086804,2.0086804,3.2785275,x,1,1.2390378,None,,,,,,,,,,,,,,,5,1,2025-10-03_16h02.32.470,motorselection,,2025.1.1,59.88375366,2025-10-03 16h02.39.754393 +0530
150,v,1,1,0,v,1,1.3943457,None,,,,,0,1,1,1,,,,,3.2852022,,3.2796443,3.2852022,4.2926874,4.2926874,4.2926874,4.2926874,4.2926874,5.2928272,5.2928272,6.6939854,v,1,1.3943457,None,,,,,,,,,,,,,,,5,1,2025-10-03_16h02.32.470,motorselection,,2025.1.1,59.88375366,2025-10-03 16h02.39.754393 +0530
50,c,2,2,0,c,1,0.6202264,None,,,,,0,2,2,2,,,,,6.7090923,,6.6952583,6.7090923,7.7090534,7.7090534,7.7090534,7.7090534,7.7090534,8.7090824,8.7090824,9.3430494,c,1,0.6202264,None,,,,,,,,,,,,,,,5,1,2025-10-03_16h02.32.470,motorselection,,2025.1.1,59.88375366,2025-10-03 16h02.39.754393 +0530
-150,z,3,3,0,z,1,0.5652794,None,,,,,0,3,3,3,,,,,9.3585181,,9.3438718,9.3585181,10.358691,10.358691,10.358691,10.358691,10.358691,11.3583678,11.3583678,11.9257043,z,1,0.5652794,None,,,,,,,,,,,,,,,5,1,2025-10-03_16h02.32.470,motorselection,,2025.1.1,59.88375366,2025-10-03 16h02.39.754393 +0530
-50,x,4,0,1,x,1,0.9272879,None,,,,,1,0,4,0,,,,,11.941458,,11.9264511,11.941458,12.9251058,12.9251058,12.9251058,12.9251058,12.9419361,13.941328,13.941328,14.8765153,x,1,0.9272879,None,,,,,,,,,,,,,,,5,1,2025-10-03_16h02.32.470,motorselection,,2025.1.1,59.88375366,2025-10-03 16h02.39.754393 +0530
150,v,5,1,1,v,1,2.9486518,None,,,,,1,1,5,1,,,,,14.8914917,,14.8777981,14.8914917,15.8911259,15.8911259,15.8911259,15.8911259,15.8911259,16.8914447,16.8914447,19.8417411,v,1,2.9486518,None,,,,,,,,,,,,,,,5,1,2025-10-03_16h02.32.470,motorselection,,2025.1.1,59.88375366,2025-10-03 16h02.39.754393 +0530
50,c,6,2,1,c,1,0.6069569,None,,,,,1,2,6,2,,,,,19.8573658,,19.8427209,19.8573658,20.8414237,20.8414237,20.8414237,20.8414237,20.8578326,21.8640168,21.8640168,22.4738647,c,1,0.6069569,None,,,,,,,,,,,,,,,5,1,2025-10-03_16h02.32.470,motorselection,,2025.1.1,59.88375366,2025-10-03 16h02.39.754393 +0530
-150,z,7,3,1,z,1,0.5127562,None,,,,,1,3,7,3,,,,,22.4898992,,22.474241,22.4898992,23.4732013,23.4732013,23.4732013,23.4732013,23.4899915,24.4730529,24.4730529,24.9908041,z,1,0.5127562,None,,,,,,,,,,,,,,,5,1,2025-10-03_16h02.32.470,motorselection,,2025.1.1,59.88375366,2025-10-03 16h02.39.754393 +0530
-50,x,8,0,2,x,1,0.3526655,None,,,,,2,0,8,0,,,,,25.0066046,,24.9912842,25.0066046,26.0067445,26.0067445,26.0067445,26.0067445,26.0067445,26.9904661,26.9904661,27.3586927,x,1,0.3526655,None,,,,,,,,,,,,,,,5,1,2025-10-03_16h02.32.470,motorselection,,2025.1.1,59.88375366,2025-10-03 16h02.39.754393 +0530
150,v,9,1,2,v,1,0.3190109,None,,,,,2,1,9,1,,,,,27.3736976,,27.3603164,27.3736976,28.3734504,28.3734504,28.3734504,28.3734504,28.3734504,29.3729716,29.3729716,29.7084265,v,1,0.3190109,None,,,,,,,,,,,,,,,5,1,2025-10-03_16h02.32.470,motorselection,,2025.1.1,59.88375366,2025-10-03 16h02.39.754393 +0530
50,c,10,2,2,c,1,0.3004366,None,,,,,2,2,10,2,,,,,29.7234489,,29.7100144,29.7234489,30.7232994,30.7232994,30.7232994,30.7232994,30.7232994,31.7227308,31.7227308,32.0407827,c,1,0.3004366,None,,,,,,,,,,,,,,,5,1,2025-10-03_16h02.32.470,motorselection,,2025.1.1,59.88375366,2025-10-03 16h02.39.754393 +0530
-150,z,11,3,2,z,1,0.3912428,None,,,,,2,3,11,3,,,,,32.0560329,,32.0419116,32.0560329,33.0399729,33.0399729,33.0399729,33.0399729,33.0563858,34.0557983,34.0557983,34.4579727,z,1,0.3912428,None,,,,,,,,,,,,,,,5,1,2025-10-03_16h02.32.470,motorselection,,2025.1.1,59.88375366,2025-10-03 16h02.39.754393 +0530
-50,x,12,0,3,x,1,0.2766233,None,,,,,3,0,12,0,,,,,34.4730843,,34.4593572,34.4730843,35.4729133,35.4729133,35.4729133,35.4729133,35.4729133,36.4724307,36.4724307,36.7562108,x,1,0.2766233,None,,,,,,,,,,,,,,,5,1,2025-10-03_16h02.32.470,motorselection,,2025.1.1,59.88375366,2025-10-03 16h02.39.754393 +0530
150,v,13,1,3,v,1,0.278053,None,,,,,3,1,13,1,,,,,36.7719055,,36.7567762,36.7719055,37.7559939,37.7559939,37.7559939,37.7559939,37.7727399,38.7559069,38.7559069,39.0407438,v,1,0.278053,None,,,,,,,,,,,,,,,5,1,2025-10-03_16h02.32.470,motorselection,,2025.1.1,59.88375366,2025-10-03 16h02.39.754393 +0530
50,c,14,2,3,c,1,0.3327909,None,,,,,3,2,14,2,,,,,39.055736,,39.0419996,39.055736,40.0554064,40.0554064,40.0554064,40.0554064,40.0554064,41.0557081,41.0557081,41.3906904,c,1,0.3327909,None,,,,,,,,,,,,,,,5,1,2025-10-03_16h02.32.470,motorselection,,2025.1.1,59.88375366,2025-10-03 16h02.39.754393 +0530
-150,z,15,3,3,z,1,0.4657027,None,,,,,3,3,15,3,,,,,41.4057851,,41.3922404,41.4057851,42.4050066,42.4050066,42.4050066,42.4050066,42.4050066,43.4046583,43.4046583,43.8724805,z,1,0.4657027,None,,,,,,,,,,,,,,,5,1,2025-10-03_16h02.32.470,motorselection,,2025.1.1,59.88375366,2025-10-03 16h02.39.754393 +0530
-50,x,16,0,4,x,1,0.8877364,None,,,,,4,0,16,0,,,,,43.888127,,43.8730417,43.888127,44.8880395,44.8880395,44.8880395,44.8880395,44.8880395,45.888129,45.888129,46.7889744,x,1,0.8877364,None,,,,,,,,,,,,,,,5,1,2025-10-03_16h02.32.470,motorselection,,2025.1.1,59.88375366,2025-10-03 16h02.39.754393 +0530
150,v,17,1,4,v,1,0.4245903,None,,,,,4,1,17,1,,,,,46.8046946,,46.7898291,46.8046946,47.7883478,47.7883478,47.7883478,47.7883478,47.8048324,48.7882544,48.7882544,49.2218419,v,1,0.4245903,None,,,,,,,,,,,,,,,5,1,2025-10-03_16h02.32.470,motorselection,,2025.1.1,59.88375366,2025-10-03 16h02.39.754393 +0530
50,c,18,2,4,c,1,0.3326793,None,,,,,4,2,18,2,,,,,49.2377389,,49.2226816,49.2377389,50.2215135,50.2215135,50.2215135,50.2215135,50.238076,51.2375691,51.2375691,51.5718268,c,1,0.3326793,None,,,,,,,,,,,,,,,5,1,2025-10-03_16h02.32.470,motorselection,,2025.1.1,59.88375366,2025-10-03 16h02.39.754393 +0530
-150,z,19,3,4,z,1,0.5114927,None,,,,,4,3,19,3,,,,,51.5875552,,51.5726367,51.5875552,52.5713877,52.5713877,52.5713877,52.5713877,52.5879391,53.5711641,53.5711641,54.0882147,z,1,0.5114927,None,,,,,,,,,,,,,,,5,1,2025-10-03_16h02.32.470,motorselection,,2025.1.1,59.88375366,2025-10-03 16h02.39.754393 +0530
-50,x,20,0,5,x,1,0.4472662,None,,,,,5,0,20,0,,,,,54.1039591,,54.0890564,54.1039591,55.087605,55.087605,55.087605,55.087605,55.104292,56.0870945,56.0870945,56.5380243,x,1,0.4472662,None,,,,,,,,,,,,,,,5,1,2025-10-03_16h02.32.470,motorselection,,2025.1.1,59.88375366,2025-10-03 16h02.39.754393 +0530
150,v,21,1,5,v,1,0.4187958,None,,,,,5,1,21,1,,,,,56.5537455,,56.538814,56.5537455,57.5373275,57.5373275,57.5373275,57.5373275,57.5540113,58.5531404,58.5531404,58.9886606,v,1,0.4187958,None,,,,,,,,,,,,,,,5,1,2025-10-03_16h02.32.470,motorselection,,2025.1.1,59.88375366,2025-10-03 16h02.39.754393 +0530
50,c,22,2,5,c,1,0.3594657,None,,,,,5,2,22,2,,,,,59.0036935,,58.9900021,59.0036935,60.0037632,60.0037632,60.0037632,60.0037632,60.0037632,61.0036388,61.0036388,61.3715853,c,1,0.3594657,None,,,,,,,,,,,,,,,5,1,2025-10-03_16h02.32.470,motorselection,,2025.1.1,59.88375366,2025-10-03 16h02.39.754393 +0530
-150,z,23,3,5,z,1,0.389227,None,,,,,5,3,23,3,,,,,61.3868285,,61.3728121,61.3868285,62.3868229,62.3868229,62.3868229,62.3868229,62.3868229,63.3862509,63.3862509,63.7884748,z,1,0.389227,None,,,,,,,,,,,,,,,5,1,2025-10-03_16h02.32.470,motorselection,,2025.1.1,59.88375366,2025-10-03 16h02.39.754393 +0530
-50,x,24,0,6,x,1,0.2986176,None,,,,,6,0,24,0,,,,,63.8033191,,63.7897908,63.8033191,64.8030848,64.8030848,64.8030848,64.8030848,64.8030848,65.8028208,65.8028208,66.1038799,x,1,0.2986176,None,,,,,,,,,,,,,,,5,1,2025-10-03_16h02.32.470,motorselection,,2025.1.1,59.88375366,2025-10-03 16h02.39.754393 +0530
150,v,25,1,6,v,1,0.3231779,None,,,,,6,1,25,1,,,,,66.1194239,,66.1047792,66.1194239,67.119811,67.119811,67.119811,67.119811,67.119811,68.1192478,68.1192478,68.4539007,v,1,0.3231779,None,,,,,,,,,,,,,,,5,1,2025-10-03_16h02.32.470,motorselection,,2025.1.1,59.88375366,2025-10-03 16h02.39.754393 +0530
50,c,26,2,6,c,1,0.3627023,None,,,,,6,2,26,2,,,,,68.4692057,,68.4546929,68.4692057,69.4696288,69.4696288,69.4696288,69.4696288,69.4696288,70.4686097,70.4686097,70.8358214,c,1,0.3627023,None,,,,,,,,,,,,,,,5,1,2025-10-03_16h02.32.470,motorselection,,2025.1.1,59.88375366,2025-10-03 16h02.39.754393 +0530
-150,z,27,3,6,z,1,0.0401141,None,,,,,6,3,27,3,,,,,70.8517445,,70.8362829,70.8517445,71.8350494,71.8350494,71.8350494,71.8350494,71.8520398,72.8515704,72.8515704,72.9020795,z,1,0.0401141,None,,,,,,,,,,,,,,,5,1,2025-10-03_16h02.32.470,motorselection,,2025.1.1,59.88375366,2025-10-03 16h02.39.754393 +0530
-50,x,28,0,7,x,1,0.3979456,None,,,,,7,0,28,0,,,,,72.9223727,,72.9025169,72.9223727,73.9017806,73.9017806,73.9017806,73.9017806,73.9351356,74.9018532,74.9018532,75.3027593,x,1,0.3979456,None,,,,,,,,,,,,,,,5,1,2025-10-03_16h02.32.470,motorselection,,2025.1.1,59.88375366,2025-10-03 16h02.39.754393 +0530
150,v,29,1,7,v,1,0.4397878,None,,,,,7,1,29,1,,,,,75.3183988,,75.30358,75.3183988,76.3023595,76.3023595,76.3023595,76.3023595,76.317871,77.3175179,77.3175179,77.7690474,v,1,0.4397878,None,,,,,,,,,,,,,,,5,1,2025-10-03_16h02.32.470,motorselection,,2025.1.1,59.88375366,2025-10-03 16h02.39.754393 +0530
50,c,30,2,7,c,1,0.3765606,None,,,,,7,2,30,2,,,,,77.7839884,,77.7703592,77.7839884,78.7838759,78.7838759,78.7838759,78.7838759,78.7838759,79.7844468,79.7844468,80.1681257,c,1,0.3765606,None,,,,,,,,,,,,,,,5,1,2025-10-03_16h02.32.470,motorselection,,2025.1.1,59.88375366,2025-10-03 16h02.39.754393 +0530
-150,z,31,3,7,z,1,0.3906243,None,,,,,7,3,31,3,,,,,80.1838185,,80.1689283,80.1838185,81.1676264,81.1676264,81.1676264,81.1676264,81.184256,82.1676743,82.1676743,82.5695444,z,1,0.3906243,None,,,,,,,,,,,,,,,5,1,2025-10-03_16h02.32.470,motorselection,,2025.1.1,59.88375366,2025-10-03 16h02.39.754393 +0530
-50,x,32,0,8,x,1,0.3984247,None,,,,,8,0,32,0,,,,,82.5842673,,82.5709431,82.5842673,83.5846925,83.5846925,83.5846925,83.5846925,83.5846925,84.5844496,84.5844496,84.9862336,x,1,0.3984247,None,,,,,,,,,,,,,,,5,1,2025-10-03_16h02.32.470,motorselection,,2025.1.1,59.88375366,2025-10-03 16h02.39.754393 +0530
150,v,33,1,8,v,1,0.3532928,None,,,,,8,1,33,1,,,,,85.001298,,84.9876737,85.001298,86.0011417,86.0011417,86.0011417,86.0011417,86.0011417,87.0011542,87.0011542,87.369356,v,1,0.3532928,None,,,,,,,,,,,,,,,5,1,2025-10-03_16h02.32.470,motorselection,,2025.1.1,59.88375366,2025-10-03 16h02.39.754393 +0530
50,c,34,2,8,c,1,0.3626569,None,,,,,8,2,34,2,,,,,87.3843426,,87.3706373,87.3843426,88.3841985,88.3841985,88.3841985,88.3841985,88.3841985,89.3841171,89.3841171,89.7508786,c,1,0.3626569,None,,,,,,,,,,,,,,,5,1,2025-10-03_16h02.32.470,motorselection,,2025.1.1,59.88375366,2025-10-03 16h02.39.754393 +0530
-150,z,35,3,8,z,1,0.3374914,None,,,,,8,3,35,3,,,,,89.7668169,,89.7514935,89.7668169,90.7507325,90.7507325,90.7507325,90.7507325,90.7673455,91.7500153,91.7500153,92.1023643,z,1,0.3374914,None,,,,,,,,,,,,,,,5,1,2025-10-03_16h02.32.470,motorselection,,2025.1.1,59.88375366,2025-10-03 16h02.39.754393 +0530
-50,x,36,0,9,x,1,0.4929987,None,,,,,9,0,36,0,,,,,92.1173531,,92.1039814,92.1173531,93.1171311,93.1171311,93.1171311,93.1171311,93.1171311,94.117165,94.117165,94.6175886,x,1,0.4929987,None,,,,,,,,,,,,,,,5,1,2025-10-03_16h02.32.470,motorselection,,2025.1.1,59.88375366,2025-10-03 16h02.39.754393 +0530
150,v,37,1,9,v,1,0.4272872,None,,,,,9,1,37,1,,,,,94.633167,,94.6183621,94.633167,95.6168482,95.6168482,95.6168482,95.6168482,95.6334327,96.6329944,96.6329944,97.0671619,v,1,0.4272872,None,,,,,,,,,,,,,,,5,1,2025-10-03_16h02.32.470,motorselection,,2025.1.1,59.88375366,2025-10-03 16h02.39.754393 +0530
50,c,38,2,9,c,1,0.4153492,None,,,,,9,2,38,2,,,,,97.082983,,97.0679611,97.082983,98.0666532,98.0666532,98.0666532,98.0666532,98.083411,99.0829444,99.0829444,99.5002215,c,1,0.4153492,None,,,,,,,,,,,,,,,5,1,2025-10-03_16h02.32.470,motorselection,,2025.1.1,59.88375366,2025-10-03 16h02.39.754393 +0530
-150,z,39,3,9,z,1,0.347391,None,,,,,9,3,39,3,,,,,99.5159207,,99.5009672,99.5159207,100.4999547,100.4999547,100.4999547,100.4999547,100.5164618,101.4997291,101.4997291,101.8497073,z,1,0.347391,None,,,,,,,,,,,,,,,5,1,2025-10-03_16h02.32.470,motorselection,,2025.1.1,59.88375366,2025-10-03 16h02.39.754393 +0530
-50,x,40,0,10,x,1,0.2565499,None,,,,,10,0,40,0,,,,,101.8657318,,101.8504626,101.8657318,102.8491777,102.8491777,102.8491777,102.8491777,102.8654946,103.8489576,103.8489576,104.1165483,x,1,0.2565499,None,,,,,,,,,,,,,,,5,1,2025-10-03_16h02.32.470,motorselection,,2025.1.1,59.88375366,2025-10-03 16h02.39.754393 +0530
150,v,41,1,10,v,1,0.4668124,None,,,,,10,1,41,1,,,,,104.1323119,,104.1173568,104.1323119,105.1158358,105.1158358,105.1158358,105.1158358,105.1326998,106.1158443,106.1158443,106.6001684,v,1,0.4668124,None,,,,,,,,,,,,,,,5,1,2025-10-03_16h02.32.470,motorselection,,2025.1.1,59.88375366,2025-10-03 16h02.39.754393 +0530
50,c,42,2,10,c,1,0.2866128,None,,,,,10,2,42,2,,,,,106.6151961,,106.6013949,106.6151961,107.6148467,107.6148467,107.6148467,107.6148467,107.6148467,108.6147767,108.6147767,108.9155979,c,1,0.2866128,None,,,,,,,,,,,,,,,5,1,2025-10-03_16h02.32.470,motorselection,,2025.1.1,59.88375366,2025-10-03 16h02.39.754393 +0530
-150,z,43,3,10,z,1,0.8611269,None,,,,,10,3,43,3,,,,,108.9312383,,108.9161207,108.9312383,109.9311903,109.9311903,109.9311903,109.9311903,109.9311903,110.9145299,110.9145299,111.7824674,z,1,0.8611269,None,,,,,,,,,,,,,,,5,1,2025-10-03_16h02.32.470,motorselection,,2025.1.1,59.88375366,2025-10-03 16h02.39.754393 +0530
-50,x,44,0,11,x,1,0.4424249,None,,,,,11,0,44,0,,,,,111.7981516,,111.7832769,111.7981516,112.7818017,112.7818017,112.7818017,112.7818017,112.7991377,113.7968233,113.7968233,114.2477057,x,1,0.4424249,None,,,,,,,,,,,,,,,5,1,2025-10-03_16h02.32.470,motorselection,,2025.1.1,59.88375366,2025-10-03 16h02.39.754393 +0530
150,v,45,1,11,v,1,0.3632679,None,,,,,11,1,45,1,,,,,114.2634245,,114.2483127,114.2634245,115.2476826,115.2476826,115.2476826,115.2476826,115.2632703,116.2474249,116.2474249,116.6143042,v,1,0.3632679,None,,,,,,,,,,,,,,,5,1,2025-10-03_16h02.32.470,motorselection,,2025.1.1,59.88375366,2025-10-03 16h02.39.754393 +0530
50,c,46,2,11,c,1,0.5645354,None,,,,,11,2,46,2,,,,,116.6301133,,116.6150869,116.6301133,117.6307371,117.6307371,117.6307371,117.6307371,117.6307371,118.6136364,118.6136364,119.1815666,c,1,0.5645354,None,,,,,,,,,,,,,,,5,1,2025-10-03_16h02.32.470,motorselection,,2025.1.1,59.88375366,2025-10-03 16h02.39.754393 +0530
-150,z,47,3,11,z,1,0.3448544,None,,,,,11,3,47,3,,,,,119.1972086,,119.1824801,119.1972086,120.1807204,120.1807204,120.1807204,120.1807204,120.1973738,121.1969869,121.1969869,121.5481913,z,1,0.3448544,None,,,,,,,,,,,,,,,5,1,2025-10-03_16h02.32.470,motorselection,,2025.1.1,59.88375366,2025-10-03 16h02.39.754393 +0530
-50,x,48,0,12,x,1,0.3599973,None,,,,,12,0,48,0,,,,,121.5638935,,121.5489999,121.5638935,122.5648928,122.5648928,122.5648928,122.5648928,122.5648928,123.5636641,123.5636641,123.9311623,x,1,0.3599973,None,,,,,,,,,,,,,,,5,1,2025-10-03_16h02.32.470,motorselection,,2025.1.1,59.88375366,2025-10-03 16h02.39.754393 +0530
150,v,49,1,12,c,0,0.1380349,None,,,,,12,1,49,1,,,,,123.9469076,,123.9319738,123.9469076,124.9468605,124.9468605,124.9468605,124.9468605,124.9468605,125.9303502,125.9303502,126.0816906,c,0,0.1380349,None,,,,,,,,,,,,,,,5,1,2025-10-03_16h02.32.470,motorselection,,2025.1.1,59.88375366,2025-10-03 16h02.39.754393 +0530
50,c,50,2,12,v,0,0.0588015,None,,,,,12,2,50,2,,,,,126.0970409,,126.0827712,126.0970409,127.0969842,127.0969842,127.0969842,127.0969842,127.0969842,128.0966343,128.0966343,128.1642811,v,0,0.0588015,None,,,,,,,,,,,,,,,5,1,2025-10-03_16h02.32.470,motorselection,,2025.1.1,59.88375366,2025-10-03 16h02.39.754393 +0530
-150,z,51,3,12,z,1,0.4150312,None,,,,,12,3,51,3,,,,,128.1798312,,128.1650867,128.1798312,129.1798374,129.1798374,129.1798374,129.1798374,129.1798374,130.1796341,130.1796341,130.597411,z,1,0.4150312,None,,,,,,,,,,,,,,,5,1,2025-10-03_16h02.32.470,motorselection,,2025.1.1,59.88375366,2025-10-03 16h02.39.754393 +0530
-50,x,52,0,13,x,1,0.5642747,None,,,,,13,0,52,0,,,,,130.6129766,,130.5982147,130.6129766,131.5966365,131.5966365,131.5966365,131.5966365,131.6132239,132.6127244,132.6127244,133.1801627,x,1,0.5642747,None,,,,,,,,,,,,,,,5,1,2025-10-03_16h02.32.470,motorselection,,2025.1.1,59.88375366,2025-10-03 16h02.39.754393 +0530
150,v,53,1,13,v,1,0.3371873,None,,,,,13,1,53,1,,,,,133.1959493,,133.1810273,133.1959493,134.1796358,134.1796358,134.1796358,134.1796358,134.1961987,135.195788,135.195788,135.5467085,v,1,0.3371873,None,,,,,,,,,,,,,,,5,1,2025-10-03_16h02.32.470,motorselection,,2025.1.1,59.88375366,2025-10-03 16h02.39.754393 +0530
50,c,54,2,13,c,1,0.2832901,None,,,,,13,2,54,2,,,,,135.5624333,,135.5475487,135.5624333,136.5621186,136.5621186,136.5621186,136.5621186,136.5621186,137.5622933,137.5622933,137.8472414,c,1,0.2832901,None,,,,,,,,,,,,,,,5,1,2025-10-03_16h02.32.470,motorselection,,2025.1.1,59.88375366,2025-10-03 16h02.39.754393 +0530
-150,z,55,3,13,z,1,0.4536629,None,,,,,13,3,55,3,,,,,137.862457,,137.8484769,137.862457,138.8624443,138.8624443,138.8624443,138.8624443,138.8624443,139.8620167,139.8620167,140.3289345,z,1,0.4536629,None,,,,,,,,,,,,,,,5,1,2025-10-03_16h02.32.470,motorselection,,2025.1.1,59.88375366,2025-10-03 16h02.39.754393 +0530
-50,x,56,0,14,x,1,0.8498915,None,,,,,14,0,56,0,,,,,140.3449783,,140.3293711,140.3449783,141.3286096,141.3286096,141.3286096,141.3286096,141.345261,142.3285091,142.3285091,143.1796161,x,1,0.8498915,None,,,,,,,,,,,,,,,5,1,2025-10-03_16h02.32.470,motorselection,,2025.1.1,59.88375366,2025-10-03 16h02.39.754393 +0530
150,v,57,1,14,v,1,0.3141983,None,,,,,14,1,57,1,,,,,143.1948543,,143.1805436,143.1948543,144.1951369,144.1951369,144.1951369,144.1951369,144.1951369,145.1948225,145.1948225,145.5121992,v,1,0.3141983,None,,,,,,,,,,,,,,,5,1,2025-10-03_16h02.32.470,motorselection,,2025.1.1,59.88375366,2025-10-03 16h02.39.754393 +0530
50,c,58,2,14,c,1,0.2464018,None,,,,,14,2,58,2,,,,,145.528189,,145.513048,145.528189,146.5274719,146.5274719,146.5274719,146.5274719,146.5274719,147.5274885,147.5274885,147.7787762,c,1,0.2464018,None,,,,,,,,,,,,,,,5,1,2025-10-03_16h02.32.470,motorselection,,2025.1.1,59.88375366,2025-10-03 16h02.39.754393 +0530
-150,z,59,3,14,z,1,0.3388051,None,,,,,14,3,59,3,,,,,147.7946332,,147.7796067,147.7946332,148.7941413,148.7941413,148.7941413,148.7941413,148.7941413,149.7781781,149.7781781,150.1287076,z,1,0.3388051,None,,,,,,,,,,,,,,,5,1,2025-10-03_16h02.32.470,motorselection,,2025.1.1,59.88375366,2025-10-03 16h02.39.754393 +0530
-50,x,60,0,15,x,1,0.2393369,None,,,,,15,0,60,0,,,,,150.1443284,,150.1296202,150.1443284,151.1278688,151.1278688,151.1278688,151.1278688,151.1442362,152.1441062,152.1441062,152.3952951,x,1,0.2393369,None,,,,,,,,,,,,,,,5,1,2025-10-03_16h02.32.470,motorselection,,2025.1.1,59.88375366,2025-10-03 16h02.39.754393 +0530
150,v,61,1,15,v,1,0.6654196,None,,,,,15,1,61,1,,,,,152.4107669,,152.3961049,152.4107669,153.4111409,153.4111409,153.4111409,153.4111409,153.4111409,154.4109648,154.4109648,155.0782881,v,1,0.6654196,None,,,,,,,,,,,,,,,5,1,2025-10-03_16h02.32.470,motorselection,,2025.1.1,59.88375366,2025-10-03 16h02.39.754393 +0530
50,c,62,2,15,c,1,0.3351966,None,,,,,15,2,62,2,,,,,155.0938558,,155.0790727,155.0938558,156.0775907,156.0775907,156.0775907,156.0775907,156.0936659,157.0775054,157.0775054,157.4279548,c,1,0.3351966,None,,,,,,,,,,,,,,,5,1,2025-10-03_16h02.32.470,motorselection,,2025.1.1,59.88375366,2025-10-03 16h02.39.754393 +0530
-150,z,63,3,15,z,1,0.415591,None,,,,,15,3,63,3,,,,,157.4436374,,157.4287258,157.4436374,158.4434143,158.4434143,158.4434143,158.4434143,158.4434143,159.4437436,159.4437436,159.8610591,z,1,0.415591,None,,,,,,,,,,,,,,,5,1,2025-10-03_16h02.32.470,motorselection,,2025.1.1,59.88375366,2025-10-03 16h02.39.754393 +0530
-50,x,64,0,16,x,1,0.3011155,None,,,,,16,0,64,0,,,,,159.8765776,,159.86195,159.8765776,160.876273,160.876273,160.876273,160.876273,160.876273,161.8763037,161.8763037,162.1941499,x,1,0.3011155,None,,,,,,,,,,,,,,,5,1,2025-10-03_16h02.32.470,motorselection,,2025.1.1,59.88375366,2025-10-03 16h02.39.754393 +0530
150,v,65,1,16,v,1,0.3706604,None,,,,,16,1,65,1,,,,,162.2097753,,162.1950401,162.2097753,163.2094574,163.2094574,163.2094574,163.2094574,163.2094574,164.2100675,164.2100675,164.5948115,v,1,0.3706604,None,,,,,,,,,,,,,,,5,1,2025-10-03_16h02.32.470,motorselection,,2025.1.1,59.88375366,2025-10-03 16h02.39.754393 +0530
50,c,66,2,16,c,1,0.3791108,None,,,,,16,2,66,2,,,,,164.6099873,,164.5960398,164.6099873,165.609657,165.609657,165.609657,165.609657,165.609657,166.6093653,166.6093653,166.9943815,c,1,0.3791108,None,,,,,,,,,,,,,,,5,1,2025-10-03_16h02.32.470,motorselection,,2025.1.1,59.88375366,2025-10-03 16h02.39.754393 +0530
-150,z,67,3,16,z,1,0.4338624,None,,,,,16,3,67,3,,,,,167.0096229,,166.9956027,167.0096229,168.0097496,168.0097496,168.0097496,168.0097496,168.0097496,169.0094946,169.0094946,169.4450879,z,1,0.4338624,None,,,,,,,,,,,,,,,5,1,2025-10-03_16h02.32.470,motorselection,,2025.1.1,59.88375366,2025-10-03 16h02.39.754393 +0530
-50,x,68,0,17,x,1,0.3837317,None,,,,,17,0,68,0,,,,,169.4590264,,169.4458917,169.4590264,170.4594807,170.4594807,170.4594807,170.4594807,170.4594807,171.4592437,171.4592437,171.8446188,x,1,0.3837317,None,,,,,,,,,,,,,,,5,1,2025-10-03_16h02.32.470,motorselection,,2025.1.1,59.88375366,2025-10-03 16h02.39.754393 +0530
150,v,69,1,17,v,1,0.3787631,None,,,,,17,1,69,1,,,,,171.8593334,,171.8460491,171.8593334,172.8590827,172.8590827,172.8590827,172.8590827,172.8590827,173.8590416,173.8590416,174.243625,v,1,0.3787631,None,,,,,,,,,,,,,,,5,1,2025-10-03_16h02.32.470,motorselection,,2025.1.1,59.88375366,2025-10-03 16h02.39.754393 +0530
50,c,70,2,17,c,1,0.4663354,None,,,,,17,2,70,2,,,,,174.2590937,,174.2449629,174.2590937,175.2588391,175.2588391,175.2588391,175.2588391,175.2588391,176.2583908,176.2583908,176.7262177,c,1,0.4663354,None,,,,,,,,,,,,,,,5,1,2025-10-03_16h02.32.470,motorselection,,2025.1.1,59.88375366,2025-10-03 16h02.39.754393 +0530
-150,z,71,3,17,z,1,0.2526339,None,,,,,17,3,71,3,,,,,176.7416875,,176.7271224,176.7416875,177.7419569,177.7419569,177.7419569,177.7419569,177.7419569,178.741466,178.741466,179.0101266,z,1,0.2526339,None,,,,,,,,,,,,,,,5,1,2025-10-03_16h02.32.470,motorselection,,2025.1.1,59.88375366,2025-10-03 16h02.39.754393 +0530
-50,x,72,0,18,x,1,0.067384,None,,,,,18,0,72,0,,,,,179.0250146,,179.0113747,179.0250146,180.0249194,180.0249194,180.0249194,180.0249194,180.0249194,181.02508,181.02508,181.1088373,x,1,0.067384,None,,,,,,,,,,,,,,,5,1,2025-10-03_16h02.32.470,motorselection,,2025.1.1,59.88375366,2025-10-03 16h02.39.754393 +0530
150,v,73,1,18,v,1,0.3285593,None,,,,,18,1,73,1,,,,,181.124694,,181.1096461,181.124694,182.1083069,182.1083069,182.1083069,182.1083069,182.1249548,183.1244228,183.1244228,183.4586502,v,1,0.3285593,None,,,,,,,,,,,,,,,5,1,2025-10-03_16h02.32.470,motorselection,,2025.1.1,59.88375366,2025-10-03 16h02.39.754393 +0530
50,c,74,2,18,c,1,0.287209,None,,,,,18,2,74,2,,,,,183.4744868,,183.4594225,183.4744868,184.4579165,184.4579165,184.4579165,184.4579165,184.474604,185.4578944,185.4578944,185.7595063,c,1,0.287209,None,,,,,,,,,,,,,,,5,1,2025-10-03_16h02.32.470,motorselection,,2025.1.1,59.88375366,2025-10-03 16h02.39.754393 +0530
-150,z,75,3,18,z,1,0.1130644,None,,,,,18,3,75,3,,,,,185.7743859,,185.7609554,185.7743859,186.7746223,186.7746223,186.7746223,186.7746223,186.7746223,187.7738202,187.7738202,187.8925105,z,1,0.1130644,None,,,,,,,,,,,,,,,5,1,2025-10-03_16h02.32.470,motorselection,,2025.1.1,59.88375366,2025-10-03 16h02.39.754393 +0530
-50,x,76,0,19,x,1,0.281756,None,,,,,19,0,76,0,,,,,187.907638,,187.8940162,187.907638,188.9076068,188.9076068,188.9076068,188.9076068,188.9076068,189.9073114,189.9073114,190.1923144,x,1,0.281756,None,,,,,,,,,,,,,,,5,1,2025-10-03_16h02.32.470,motorselection,,2025.1.1,59.88375366,2025-10-03 16h02.39.754393 +0530
150,v,77,1,19,v,1,0.3873718,None,,,,,19,1,77,1,,,,,190.207511,,190.1937315,190.207511,191.2067218,191.2067218,191.2067218,191.2067218,191.2067218,192.2072504,192.2072504,192.6087156,v,1,0.3873718,None,,,,,,,,,,,,,,,5,1,2025-10-03_16h02.32.470,motorselection,,2025.1.1,59.88375366,2025-10-03 16h02.39.754393 +0530
50,c,78,2,19,c,1,0.1706523,None,,,,,19,2,78,2,,,,,192.6237571,,192.6100756,192.6237571,193.6228861,193.6228861,193.6228861,193.6228861,193.6228861,194.6226652,194.6226652,194.8063846,c,1,0.1706523,None,,,,,,,,,,,,,,,5,1,2025-10-03_16h02.32.470,motorselection,,2025.1.1,59.88375366,2025-10-03 16h02.39.754393 +0530
-150,z,79,3,19,z,1,0.2661632,None,,,,,19,3,79,3,,,,,194.8227331,,194.8068563,194.8227331,195.8065738,195.8065738,195.8065738,195.8065738,195.8231074,196.8059641,196.8059641,197.0731223,z,1,0.2661632,None,,,,,,,,,,,,,,,5,1,2025-10-03_16h02.32.470,motorselection,,2025.1.1,59.88375366,2025-10-03 16h02.39.754393 +0530
-50,x,80,0,20,x,1,0.0186461,None,,,,,20,0,80,0,,,,,197.0892335,,197.0734171,197.0892335,198.0728442,198.0728442,198.0728442,198.0728442,198.0895275,199.0727379,199.0727379,199.106486,x,1,0.0186461,None,,,,,,,,,,,,,,,5,1,2025-10-03_16h02.32.470,motorselection,,2025.1.1,59.88375366,2025-10-03 16h02.39.754393 +0530
150,v,81,1,20,v,1,0.0269602,None,,,,,20,1,81,1,,,,,199.1225213,,199.1069772,199.1225213,200.1059519,200.1059519,200.1059519,200.1059519,200.1226581,201.1064471,201.1064471,201.1413097,v,1,0.0269602,None,,,,,,,,,,,,,,,5,1,2025-10-03_16h02.32.470,motorselection,,2025.1.1,59.88375366,2025-10-03 16h02.39.754393 +0530
50,c,82,2,20,c,1,0.207222,None,,,,,20,2,82,2,,,,,201.1563457,,201.1426551,201.1563457,202.1561095,202.1561095,202.1561095,202.1561095,202.1561095,203.1556065,203.1556065,203.374258,c,1,0.207222,None,,,,,,,,,,,,,,,5,1,2025-10-03_16h02.32.470,motorselection,,2025.1.1,59.88375366,2025-10-03 16h02.39.754393 +0530
-150,z,83,3,20,z,1,0.4987169,None,,,,,20,3,83,3,,,,,203.3894339,,203.3756394,203.3894339,204.3894308,204.3894308,204.3894308,204.3894308,204.3894308,205.3885933,205.3885933,205.889704,z,1,0.4987169,None,,,,,,,,,,,,,,,5,1,2025-10-03_16h02.32.470,motorselection,,2025.1.1,59.88375366,2025-10-03 16h02.39.754393 +0530
-50,x,84,0,21,x,1,0.2842814,None,,,,,21,0,84,0,,,,,205.9053698,,205.8904905,205.9053698,206.9052127,206.9052127,206.9052127,206.9052127,206.9052127,207.9048935,207.9048935,208.2060115,x,1,0.2842814,None,,,,,,,,,,,,,,,5,1,2025-10-03_16h02.32.470,motorselection,,2025.1.1,59.88375366,2025-10-03 16h02.39.754393 +0530
150,v,85,1,21,v,1,0.3257578,None,,,,,21,1,85,1,,,,,208.2218043,,208.2068015,208.2218043,209.2053818,209.2053818,209.2053818,209.2053818,209.2216943,210.2216235,210.2216235,210.5560686,v,1,0.3257578,None,,,,,,,,,,,,,,,5,1,2025-10-03_16h02.32.470,motorselection,,2025.1.1,59.88375366,2025-10-03 16h02.39.754393 +0530
50,c,86,2,21,c,1,0.1146694,None,,,,,21,2,86,2,,,,,210.5715808,,210.5568538,210.5715808,211.5713694,211.5713694,211.5713694,211.5713694,211.5713694,212.5717848,212.5717848,212.6893131,c,1,0.1146694,None,,,,,,,,,,,,,,,5,1,2025-10-03_16h02.32.470,motorselection,,2025.1.1,59.88375366,2025-10-03 16h02.39.754393 +0530
-150,z,87,3,21,z,1,0.1138927,None,,,,,21,3,87,3,,,,,212.7049007,,212.6901232,212.7049007,213.7045446,213.7045446,213.7045446,213.7045446,213.7045446,214.7040861,214.7040861,214.8223936,z,1,0.1138927,None,,,,,,,,,,,,,,,5,1,2025-10-03_16h02.32.470,motorselection,,2025.1.1,59.88375366,2025-10-03 16h02.39.754393 +0530
-50,x,88,0,22,x,1,0.2577074,None,,,,,22,0,88,0,,,,,214.8381485,,214.8235053,214.8381485,215.8376008,215.8376008,215.8376008,215.8376008,215.8376008,216.8380147,216.8380147,217.1054321,x,1,0.2577074,None,,,,,,,,,,,,,,,5,1,2025-10-03_16h02.32.470,motorselection,,2025.1.1,59.88375366,2025-10-03 16h02.39.754393 +0530
150,v,89,1,22,v,1,0.2469273,None,,,,,22,1,89,1,,,,,217.1209559,,217.1062714,217.1209559,218.1211989,218.1211989,218.1211989,218.1211989,218.1211989,219.1044683,219.1044683,219.3556148,v,1,0.2469273,None,,,,,,,,,,,,,,,5,1,2025-10-03_16h02.32.470,motorselection,,2025.1.1,59.88375366,2025-10-03 16h02.39.754393 +0530
50,c,90,2,22,c,1,0.2175206,None,,,,,22,2,90,2,,,,,219.3712253,,219.3570454,219.3712253,220.3710978,220.3710978,220.3710978,220.3710978,220.3710978,221.3704296,221.3704296,221.6049916,c,1,0.2175206,None,,,,,,,,,,,,,,,5,1,2025-10-03_16h02.32.470,motorselection,,2025.1.1,59.88375366,2025-10-03 16h02.39.754393 +0530
-150,z,91,3,22,z,1,0.2779159,None,,,,,22,3,91,3,,,,,221.620554,,221.60596,221.620554,222.6209153,222.6209153,222.6209153,222.6209153,222.6209153,223.6203122,223.6203122,223.9057254,z,1,0.2779159,None,,,,,,,,,,,,,,,5,1,2025-10-03_16h02.32.470,motorselection,,2025.1.1,59.88375366,2025-10-03 16h02.39.754393 +0530
-50,x,92,0,23,x,1,0.2726755,None,,,,,23,0,92,0,,,,,223.9206104,,223.9071354,223.9206104,224.9201919,224.9201919,224.9201919,224.9201919,224.9201919,225.9205912,225.9205912,226.2062763,x,1,0.2726755,None,,,,,,,,,,,,,,,5,1,2025-10-03_16h02.32.470,motorselection,,2025.1.1,59.88375366,2025-10-03 16h02.39.754393 +0530
150,v,93,1,23,v,1,0.3224984,None,,,,,23,1,93,1,,,,,226.2205653,,226.2074998,226.2205653,227.2202976,227.2202976,227.2202976,227.2202976,227.2202976,228.2198945,228.2198945,228.5545044,v,1,0.3224984,None,,,,,,,,,,,,,,,5,1,2025-10-03_16h02.32.470,motorselection,,2025.1.1,59.88375366,2025-10-03 16h02.39.754393 +0530
50,c,94,2,23,c,1,0.3614764,None,,,,,23,2,94,2,,,,,228.5698146,,228.5555405,228.5698146,229.5691311,229.5691311,229.5691311,229.5691311,229.5691311,230.5691176,230.5691176,230.9363049,c,1,0.3614764,None,,,,,,,,,,,,,,,5,1,2025-10-03_16h02.32.470,motorselection,,2025.1.1,59.88375366,2025-10-03 16h02.39.754393 +0530
-150,z,95,3,23,z,1,0.6880419,None,,,,,23,3,95,3,,,,,230.9524628,,230.9366376,230.9524628,231.9355716,231.9355716,231.9355716,231.9355716,231.952229,232.9354744,232.9354744,233.6362994,z,1,0.6880419,None,,,,,,,,,,,,,,,5,1,2025-10-03_16h02.32.470,motorselection,,2025.1.1,59.88375366,2025-10-03 16h02.39.754393 +0530
-50,x,96,0,24,x,1,0.4958801,None,,,,,24,0,96,0,,,,,233.652338,,233.6366715,233.652338,234.6358453,234.6358453,234.6358453,234.6358453,234.6525143,235.6354745,235.6354745,236.1370101,x,1,0.4958801,None,,,,,,,,,,,,,,,5,1,2025-10-03_16h02.32.470,motorselection,,2025.1.1,59.88375366,2025-10-03 16h02.39.754393 +0530
150,v,97,1,24,v,1,0.3035513,None,,,,,24,1,97,1,,,,,236.1523941,,236.1379579,236.1523941,237.1524556,237.1524556,237.1524556,237.1524556,237.1524556,238.1516132,238.1516132,238.4696425,v,1,0.3035513,None,,,,,,,,,,,,,,,5,1,2025-10-03_16h02.32.470,motorselection,,2025.1.1,59.88375366,2025-10-03 16h02.39.754393 +0530
50,c,98,2,24,c,1,0.222424,None,,,,,24,2,98,2,,,,,238.485225,,238.4703598,238.485225,239.469207,239.469207,239.469207,239.469207,239.4856399,240.4853434,240.4853434,240.7195038,c,1,0.222424,None,,,,,,,,,,,,,,,5,1,2025-10-03_16h02.32.470,motorselection,,2025.1.1,59.88375366,2025-10-03 16h02.39.754393 +0530
-150,z,99,3,24,z,1,0.3182305,None,,,,,24,3,99,3,,,,,240.7353769,,240.7203039,240.7353769,241.7189622,241.7189622,241.7189622,241.7189622,241.7353907,242.735075,242.735075,243.0693566,z,1,0.3182305,None,,,,,,,,,,,,,,,5,1,2025-10-03_16h02.32.470,motorselection,,2025.1.1,59.88375366,2025-10-03 16h02.39.754393 +0530
-50,x,100,0,25,x,1,0.2609213,None,,,,,25,0,100,0,,,,,243.0850643,,243.0701285,243.0850643,244.0686937,244.0686937,244.0686937,244.0686937,244.0852305,245.0685841,245.0685841,245.3352088,x,1,0.2609213,None,,,,,,,,,,,,,,,5,1,2025-10-03_16h02.32.470,motorselection,,2025.1.1,59.88375366,2025-10-03 16h02.39.754393 +0530
150,v,101,1,25,v,1,0.118774,None,,,,,25,1,101,1,,,,,245.351819,,245.3362741,245.351819,246.3511488,246.3511488,246.3511488,246.3511488,246.3511488,247.3348651,247.3348651,247.4687735,v,1,0.118774,None,,,,,,,,,,,,,,,5,1,2025-10-03_16h02.32.470,motorselection,,2025.1.1,59.88375366,2025-10-03 16h02.39.754393 +0530
50,c,102,2,25,c,1,0.2771877,None,,,,,25,2,102,2,,,,,247.484522,,247.4694719,247.484522,248.4680885,248.4680885,248.4680885,248.4680885,248.48484,249.4843697,249.4843697,249.7687252,c,1,0.2771877,None,,,,,,,,,,,,,,,5,1,2025-10-03_16h02.32.470,motorselection,,2025.1.1,59.88375366,2025-10-03 16h02.39.754393 +0530
-150,z,103,3,25,z,1,0.3119489,None,,,,,25,3,103,3,,,,,249.7843429,,249.7694876,249.7843429,250.768079,250.768079,250.768079,250.768079,250.7846135,251.7841324,251.7841324,252.1027073,z,1,0.3119489,None,,,,,,,,,,,,,,,5,1,2025-10-03_16h02.32.470,motorselection,,2025.1.1,59.88375366,2025-10-03 16h02.39.754393 +0530
-50,x,104,0,26,x,1,0.3754261,None,,,,,26,0,104,0,,,,,252.1178845,,252.1039443,252.1178845,253.1171082,253.1171082,253.1171082,253.1171082,253.1171082,254.1171,254.1171,254.5014727,x,1,0.3754261,None,,,,,,,,,,,,,,,5,1,2025-10-03_16h02.32.470,motorselection,,2025.1.1,59.88375366,2025-10-03 16h02.39.754393 +0530
150,v,105,1,26,v,1,0.1641311,None,,,,,26,1,105,1,,,,,254.5174323,,254.5022736,254.5174323,255.5009809,255.5009809,255.5009809,255.5009809,255.517706,256.5008035,256.5008035,256.6679137,v,1,0.1641311,None,,,,,,,,,,,,,,,5,1,2025-10-03_16h02.32.470,motorselection,,2025.1.1,59.88375366,2025-10-03 16h02.39.754393 +0530
50,c,106,2,26,c,1,0.2990593,None,,,,,26,2,106,2,,,,,256.6839188,,256.6688241,256.6839188,257.6674712,257.6674712,257.6674712,257.6674712,257.6839579,258.6834729,258.6834729,258.9853603,c,1,0.2990593,None,,,,,,,,,,,,,,,5,1,2025-10-03_16h02.32.470,motorselection,,2025.1.1,59.88375366,2025-10-03 16h02.39.754393 +0530
-150,z,107,3,26,z,1,0.2792277,None,,,,,26,3,107,3,,,,,259.0006008,,258.9867292,259.0006008,260.0005546,260.0005546,260.0005546,260.0005546,260.0005546,261.000163,261.000163,261.2852146,z,1,0.2792277,None,,,,,,,,,,,,,,,5,1,2025-10-03_16h02.32.470,motorselection,,2025.1.1,59.88375366,2025-10-03 16h02.39.754393 +0530
-50,x,108,0,27,x,1,0.1312077,None,,,,,27,0,108,0,,,,,261.2998459,,261.2864665,261.2998459,262.300239,262.300239,262.300239,262.300239,262.300239,263.3000066,263.3000066,263.4348786,x,1,0.1312077,None,,,,,,,,,,,,,,,5,1,2025-10-03_16h02.32.470,motorselection,,2025.1.1,59.88375366,2025-10-03 16h02.39.754393 +0530
150,v,109,1,27,v,1,0.3883524,None,,,,,27,1,109,1,,,,,263.450013,,263.436156,263.450013,264.450037,264.450037,264.450037,264.450037,264.450037,265.4498234,265.4498234,265.8492829,v,1,0.3883524,None,,,,,,,,,,,,,,,5,1,2025-10-03_16h02.32.470,motorselection,,2025.1.1,59.88375366,2025-10-03 16h02.39.754393 +0530
50,c,110,2,27,c,1,0.2046875,None,,,,,27,2,110,2,,,,,265.8657113,,265.8495644,265.8657113,266.8487364,266.8487364,266.8487364,266.8487364,266.8655504,267.8493604,267.8493604,268.0658388,c,1,0.2046875,None,,,,,,,,,,,,,,,5,1,2025-10-03_16h02.32.470,motorselection,,2025.1.1,59.88375366,2025-10-03 16h02.39.754393 +0530
-150,z,111,3,27,z,1,0.2681107,None,,,,,27,3,111,3,,,,,268.08302,,268.0662972,268.08302,269.0653534,269.0653534,269.0653534,269.0653534,269.0820644,270.0655912,270.0655912,270.3494407,z,1,0.2681107,None,,,,,,,,,,,,,,,5,1,2025-10-03_16h02.32.470,motorselection,,2025.1.1,59.88375366,2025-10-03 16h02.39.754393 +0530
-50,x,112,0,28,x,1,0.2670431,None,,,,,28,0,112,0,,,,,270.3653628,,270.3500346,270.3653628,271.3493446,271.3493446,271.3493446,271.3493446,271.3658858,272.3485083,272.3485083,272.632717,x,1,0.2670431,None,,,,,,,,,,,,,,,5,1,2025-10-03_16h02.32.470,motorselection,,2025.1.1,59.88375366,2025-10-03 16h02.39.754393 +0530
150,v,113,1,28,v,1,0.2456763,None,,,,,28,1,113,1,,,,,272.6490511,,272.6334922,272.6490511,273.6324697,273.6324697,273.6324697,273.6324697,273.6490476,274.6322439,274.6322439,274.8829074,v,1,0.2456763,None,,,,,,,,,,,,,,,5,1,2025-10-03_16h02.32.470,motorselection,,2025.1.1,59.88375366,2025-10-03 16h02.39.754393 +0530
50,c,114,2,28,c,1,0.2825422,None,,,,,28,2,114,2,,,,,274.8984726,,274.8837923,274.8984726,275.8989484,275.8989484,275.8989484,275.8989484,275.8989484,276.8819124,276.8819124,277.1667466,c,1,0.2825422,None,,,,,,,,,,,,,,,5,1,2025-10-03_16h02.32.470,motorselection,,2025.1.1,59.88375366,2025-10-03 16h02.39.754393 +0530
-150,z,115,3,28,z,1,0.2628273,None,,,,,28,3,115,3,,,,,277.1820756,,277.1679703,277.1820756,278.1818473,278.1818473,278.1818473,278.1818473,278.1818473,279.1812628,279.1812628,279.4497973,z,1,0.2628273,None,,,,,,,,,,,,,,,5,1,2025-10-03_16h02.32.470,motorselection,,2025.1.1,59.88375366,2025-10-03 16h02.39.754393 +0530
-50,x,116,0,29,x,1,0.3236484,None,,,,,29,0,116,0,,,,,279.4651274,,279.4511308,279.4651274,280.464914,280.464914,280.464914,280.464914,280.464914,281.4648705,281.4648705,281.7996705,x,1,0.3236484,None,,,,,,,,,,,,,,,5,1,2025-10-03_16h02.32.470,motorselection,,2025.1.1,59.88375366,2025-10-03 16h02.39.754393 +0530
150,v,117,1,29,v,1,0.4569159,None,,,,,29,1,117,1,,,,,281.8150037,,281.8010157,281.8150037,282.8147222,282.8147222,282.8147222,282.8147222,282.8147222,283.8146081,283.8146081,284.282965,v,1,0.4569159,None,,,,,,,,,,,,,,,5,1,2025-10-03_16h02.32.470,motorselection,,2025.1.1,59.88375366,2025-10-03 16h02.39.754393 +0530
50,c,118,2,29,c,1,0.516706,None,,,,,29,2,118,2,,,,,284.2979602,,284.2842451,284.2979602,285.2978054,285.2978054,285.2978054,285.2978054,285.2978054,286.2977321,286.2977321,286.8323276,c,1,0.516706,None,,,,,,,,,,,,,,,5,1,2025-10-03_16h02.32.470,motorselection,,2025.1.1,59.88375366,2025-10-03 16h02.39.754393 +0530
-150,z,119,3,29,z,1,0.4776231,None,,,,,29,3,119,3,,,,,286.8476617,,286.8335684,286.8476617,287.8470606,287.8470606,287.8470606,287.8470606,287.8470606,288.847234,288.847234,289.3313216,z,1,0.4776231,None,,,,,,,,,,,,,,,5,1,2025-10-03_16h02.32.470,motorselection,,2025.1.1,59.88375366,2025-10-03 16h02.39.754393 +0530
-50,x,120,0,30,x,1,0.320801,None,,,,,30,0,120,0,,,,,289.3469964,,289.3320978,289.3469964,290.3468389,290.3468389,290.3468389,290.3468389,290.3468389,291.3465323,291.3465323,291.681357,x,1,0.320801,None,,,,,,,,,,,,,,,5,1,2025-10-03_16h02.32.470,motorselection,,2025.1.1,59.88375366,2025-10-03 16h02.39.754393 +0530
150,v,121,1,30,v,1,0.4565543,None,,,,,30,1,121,1,,,,,291.6967587,,291.6822596,291.6967587,292.6970193,292.6970193,292.6970193,292.6970193,292.6970193,293.6968306,293.6968306,294.1642587,v,1,0.4565543,None,,,,,,,,,,,,,,,5,1,2025-10-03_16h02.32.470,motorselection,,2025.1.1,59.88375366,2025-10-03 16h02.39.754393 +0530
50,c,122,2,30,c,1,0.3675057,None,,,,,30,2,122,2,,,,,294.1798459,,294.1650548,294.1798459,295.1634953,295.1634953,295.1634953,295.1634953,295.1801246,296.1799725,296.1799725,296.5638926,c,1,0.3675057,None,,,,,,,,,,,,,,,5,1,2025-10-03_16h02.32.470,motorselection,,2025.1.1,59.88375366,2025-10-03 16h02.39.754393 +0530
-150,z,123,3,30,z,1,0.3085955,None,,,,,30,3,123,3,,,,,296.5795152,,296.5647781,296.5795152,297.5795123,297.5795123,297.5795123,297.5795123,297.5795123,298.5627635,298.5627635,298.8803332,z,1,0.3085955,None,,,,,,,,,,,,,,,5,1,2025-10-03_16h02.32.470,motorselection,,2025.1.1,59.88375366,2025-10-03 16h02.39.754393 +0530
-50,x,124,0,31,x,1,0.3303858,None,,,,,31,0,124,0,,,,,298.8960082,,298.881153,298.8960082,299.8798121,299.8798121,299.8798121,299.8798121,299.8964298,300.8797943,300.8797943,301.2128924,x,1,0.3303858,None,,,,,,,,,,,,,,,5,1,2025-10-03_16h02.32.470,motorselection,,2025.1.1,59.88375366,2025-10-03 16h02.39.754393 +0530
150,v,125,1,31,v,1,0.1136436,None,,,,,31,1,125,1,,,,,301.2287892,,301.2136325,301.2287892,302.2127801,302.2127801,302.2127801,302.2127801,302.2294339,303.2127851,303.2127851,303.3311351,v,1,0.1136436,None,,,,,,,,,,,,,,,5,1,2025-10-03_16h02.32.470,motorselection,,2025.1.1,59.88375366,2025-10-03 16h02.39.754393 +0530
50,c,126,2,31,c,1,0.2947577,None,,,,,31,2,126,2,,,,,303.3459475,,303.3323693,303.3459475,304.3454799,304.3454799,304.3454799,304.3454799,304.3454799,305.3453297,305.3453297,305.6465315,c,1,0.2947577,None,,,,,,,,,,,,,,,5,1,2025-10-03_16h02.32.470,motorselection,,2025.1.1,59.88375366,2025-10-03 16h02.39.754393 +0530
-150,z,127,3,31,z,1,0.345364,None,,,,,31,3,127,3,,,,,305.6618789,,305.6471613,305.6618789,306.6455942,306.6455942,306.6455942,306.6455942,306.6622412,307.6619044,307.6619044,308.0126028,z,1,0.345364,None,,,,,,,,,,,,,,,5,1,2025-10-03_16h02.32.470,motorselection,,2025.1.1,59.88375366,2025-10-03 16h02.39.754393 +0530
-50,x,128,0,32,x,1,0.2006257,None,,,,,32,0,128,0,,,,,308.0283735,,308.0133148,308.0283735,309.011467,309.011467,309.011467,309.011467,309.028832,310.0282647,310.0282647,310.2457828,x,1,0.2006257,None,,,,,,,,,,,,,,,5,1,2025-10-03_16h02.32.470,motorselection,,2025.1.1,59.88375366,2025-10-03 16h02.39.754393 +0530
150,v,129,1,32,v,1,0.2990165,None,,,,,32,1,129,1,,,,,310.261566,,310.2465712,310.261566,311.2614978,311.2614978,311.2614978,311.2614978,311.2614978,312.2611036,312.2611036,312.5622735,v,1,0.2990165,None,,,,,,,,,,,,,,,5,1,2025-10-03_16h02.32.470,motorselection,,2025.1.1,59.88375366,2025-10-03 16h02.39.754393 +0530
50,c,130,2,32,c,1,0.6371045,None,,,,,32,2,130,2,,,,,312.5779962,,312.5631044,312.5779962,313.5617256,313.5617256,313.5617256,313.5617256,313.5782909,314.5778025,314.5778025,315.2296611,c,1,0.6371045,None,,,,,,,,,,,,,,,5,1,2025-10-03_16h02.32.470,motorselection,,2025.1.1,59.88375366,2025-10-03 16h02.39.754393 +0530
-150,z,131,3,32,z,1,0.6359328,None,,,,,32,3,131,3,,,,,315.2447883,,315.2310807,315.2447883,316.244716,316.244716,316.244716,316.244716,316.244716,317.244319,317.244319,317.8951506,z,1,0.6359328,None,,,,,,,,,,,,,,,5,1,2025-10-03_16h02.32.470,motorselection,,2025.1.1,59.88375366,2025-10-03 16h02.39.754393 +0530
-50,x,132,0,33,x,1,0.0552082,None,,,,,33,0,132,0,,,,,317.9107891,,317.8959241,317.9107891,318.9104409,318.9104409,318.9104409,318.9104409,318.9104409,319.9105112,319.9105112,319.9780934,x,1,0.0552082,None,,,,,,,,,,,,,,,5,1,2025-10-03_16h02.32.470,motorselection,,2025.1.1,59.88375366,2025-10-03 16h02.39.754393 +0530
150,v,133,1,33,v,1,0.4269306,None,,,,,33,1,133,1,,,,,319.9938384,,319.9788227,319.9938384,320.9775675,320.9775675,320.9775675,320.9775675,320.9943031,321.9775877,321.9775877,322.4113062,v,1,0.4269306,None,,,,,,,,,,,,,,,5,1,2025-10-03_16h02.32.470,motorselection,,2025.1.1,59.88375366,2025-10-03 16h02.39.754393 +0530
50,c,134,2,33,c,1,0.1439809,None,,,,,33,2,134,2,,,,,322.4268908,,322.412122,322.4268908,323.4108784,323.4108784,323.4108784,323.4108784,323.4271559,324.4104837,324.4104837,324.5608459,c,1,0.1439809,None,,,,,,,,,,,,,,,5,1,2025-10-03_16h02.32.470,motorselection,,2025.1.1,59.88375366,2025-10-03 16h02.39.754393 +0530
-150,z,135,3,33,z,1,0.3253293,None,,,,,33,3,135,3,,,,,324.5765829,,324.5614786,324.5765829,325.5605152,325.5605152,325.5605152,325.5605152,325.5770726,326.559946,326.559946,326.8942684,z,1,0.3253293,None,,,,,,,,,,,,,,,5,1,2025-10-03_16h02.32.470,motorselection,,2025.1.1,59.88375366,2025-10-03 16h02.39.754393 +0530
-50,x,136,0,34,x,1,0.6488256,None,,,,,34,0,136,0,,,,,326.9099634,,326.8950864,326.9099634,327.893531,327.893531,327.893531,327.893531,327.9100114,328.9100826,328.9100826,329.5605546,x,1,0.6488256,None,,,,,,,,,,,,,,,5,1,2025-10-03_16h02.32.470,motorselection,,2025.1.1,59.88375366,2025-10-03 16h02.39.754393 +0530
150,v,137,1,34,v,1,0.4491525,None,,,,,34,1,137,1,,,,,329.5762857,,329.5614142,329.5762857,330.5599282,330.5599282,330.5599282,330.5599282,330.5763782,331.5758837,331.5758837,332.0270005,v,1,0.4491525,None,,,,,,,,,,,,,,,5,1,2025-10-03_16h02.32.470,motorselection,,2025.1.1,59.88375366,2025-10-03 16h02.39.754393 +0530
50,c,138,2,34,c,1,0.3217625,None,,,,,34,2,138,2,,,,,332.0427775,,332.0278117,332.0427775,333.0422339,333.0422339,333.0422339,333.0422339,333.0422339,334.0425646,334.0425646,334.3766346,c,1,0.3217625,None,,,,,,,,,,,,,,,5,1,2025-10-03_16h02.32.470,motorselection,,2025.1.1,59.88375366,2025-10-03 16h02.39.754393 +0530
-150,z,139,3,34,z,1,0.2649437,None,,,,,34,3,139,3,,,,,334.3924643,,334.3773556,334.3924643,335.3756781,335.3756781,335.3756781,335.3756781,335.3924067,336.3753115,336.3753115,336.6430537,z,1,0.2649437,None,,,,,,,,,,,,,,,5,1,2025-10-03_16h02.32.470,motorselection,,2025.1.1,59.88375366,2025-10-03 16h02.39.754393 +0530
-50,x,140,0,35,x,1,0.4739227,None,,,,,35,0,140,0,,,,,336.6589434,,336.6438393,336.6589434,337.6426486,337.6426486,337.6426486,337.6426486,337.6592082,338.6586149,338.6586149,339.143436,x,1,0.4739227,None,,,,,,,,,,,,,,,5,1,2025-10-03_16h02.32.470,motorselection,,2025.1.1,59.88375366,2025-10-03 16h02.39.754393 +0530
150,v,141,1,35,v,1,0.2614919,None,,,,,35,1,141,1,,,,,339.1595722,,339.1442295,339.1595722,340.1591133,340.1591133,340.1591133,340.1591133,340.1591133,341.1589914,341.1589914,341.4258128,v,1,0.2614919,None,,,,,,,,,,,,,,,5,1,2025-10-03_16h02.32.470,motorselection,,2025.1.1,59.88375366,2025-10-03 16h02.39.754393 +0530
50,c,142,2,35,c,1,0.4618693,None,,,,,35,2,142,2,,,,,341.44181,,341.4266135,341.44181,342.425012,342.425012,342.425012,342.425012,342.4418565,343.4415061,343.4415061,343.909571,c,1,0.4618693,None,,,,,,,,,,,,,,,5,1,2025-10-03_16h02.32.470,motorselection,,2025.1.1,59.88375366,2025-10-03 16h02.39.754393 +0530
-150,z,143,3,35,z,1,0.133974,None,,,,,35,3,143,3,,,,,343.9248548,,343.9103141,343.9248548,344.9251951,344.9251951,344.9251951,344.9251951,344.9251951,345.9252249,345.9252249,346.0754927,z,1,0.133974,None,,,,,,,,,,,,,,,5,1,2025-10-03_16h02.32.470,motorselection,,2025.1.1,59.88375366,2025-10-03 16h02.39.754393 +0530
-50,x,144,0,36,x,1,0.3835115,None,,,,,36,0,144,0,,,,,346.0915965,,346.0763118,346.0915965,347.0749564,347.0749564,347.0749564,347.0749564,347.0915393,348.0749157,348.0749157,348.475394,x,1,0.3835115,None,,,,,,,,,,,,,,,5,1,2025-10-03_16h02.32.470,motorselection,,2025.1.1,59.88375366,2025-10-03 16h02.39.754393 +0530
150,v,145,1,36,v,1,0.9563922,None,,,,,36,1,145,1,,,,,348.491039,,348.4762094,348.491039,349.4748788,349.4748788,349.4748788,349.4748788,349.4915158,350.4746997,350.4746997,351.4428556,v,1,0.9563922,None,,,,,,,,,,,,,,,5,1,2025-10-03_16h02.32.470,motorselection,,2025.1.1,59.88375366,2025-10-03 16h02.39.754393 +0530
50,c,146,2,36,c,1,0.435512,None,,,,,36,2,146,2,,,,,351.4574256,,351.4441422,351.4574256,352.4577515,352.4577515,352.4577515,352.4577515,352.4577515,353.4571043,353.4571043,353.9093377,c,1,0.435512,None,,,,,,,,,,,,,,,5,1,2025-10-03_16h02.32.470,motorselection,,2025.1.1,59.88375366,2025-10-03 16h02.39.754393 +0530
-150,z,147,3,36,z,1,0.1712678,None,,,,,36,3,147,3,,,,,353.9243309,,353.9106388,353.9243309,354.9241511,354.9241511,354.9241511,354.9241511,354.9241511,355.9232107,355.9232107,356.1068913,z,1,0.1712678,None,,,,,,,,,,,,,,,5,1,2025-10-03_16h02.32.470,motorselection,,2025.1.1,59.88375366,2025-10-03 16h02.39.754393 +0530
-50,x,148,0,37,x,1,0.307778,None,,,,,37,0,148,0,,,,,356.1235247,,356.1071883,356.1235247,357.1065139,357.1065139,357.1065139,357.1065139,357.1233276,358.1062353,358.1062353,358.4233508,x,1,0.307778,None,,,,,,,,,,,,,,,5,1,2025-10-03_16h02.32.470,motorselection,,2025.1.1,59.88375366,2025-10-03 16h02.39.754393 +0530
150,v,149,1,37,v,1,0.3588494,None,,,,,37,1,149,1,,,,,358.4396915,,358.4237432,358.4396915,359.4229223,359.4229223,359.4229223,359.4229223,359.4396153,360.4235449,360.4235449,360.7907944,v,1,0.3588494,None,,,,,,,,,,,,,,,5,1,2025-10-03_16h02.32.470,motorselection,,2025.1.1,59.88375366,2025-10-03 16h02.39.754393 +0530
50,c,150,2,37,c,1,0.2605264,None,,,,,37,2,150,2,,,,,360.8063654,,360.7916188,360.8063654,361.7901359,361.7901359,361.7901359,361.7901359,361.8067818,362.7899562,362.7899562,363.0573087,c,1,0.2605264,None,,,,,,,,,,,,,,,5,1,2025-10-03_16h02.32.470,motorselection,,2025.1.1,59.88375366,2025-10-03 16h02.39.754393 +0530
-150,z,151,3,37,z,1,0.059287,None,,,,,37,3,151,3,,,,,363.0728767,,363.0582117,363.0728767,364.0566817,364.0566817,364.0566817,364.0566817,364.0732146,365.0727311,365.0727311,365.1398725,z,1,0.059287,None,,,,,,,,,,,,,,,5,1,2025-10-03_16h02.32.470,motorselection,,2025.1.1,59.88375366,2025-10-03 16h02.39.754393 +0530
-50,x,152,0,38,x,1,0.3689643,None,,,,,38,0,152,0,,,,,365.1557953,,365.1404522,365.1557953,366.1398968,366.1398968,366.1398968,366.1398968,366.1561883,367.1395639,367.1395639,367.5242541,x,1,0.3689643,None,,,,,,,,,,,,,,,5,1,2025-10-03_16h02.32.470,motorselection,,2025.1.1,59.88375366,2025-10-03 16h02.39.754393 +0530
150,v,153,1,38,v,1,0.2823566,None,,,,,38,1,153,1,,,,,367.5395994,,367.5255459,367.5395994,368.5395786,368.5395786,368.5395786,368.5395786,368.5395786,369.5387011,369.5387011,369.8241537,v,1,0.2823566,None,,,,,,,,,,,,,,,5,1,2025-10-03_16h02.32.470,motorselection,,2025.1.1,59.88375366,2025-10-03 16h02.39.754393 +0530
50,c,154,2,38,c,1,0.2928159,None,,,,,38,2,154,2,,,,,369.8393118,,369.825421,369.8393118,370.83918,370.83918,370.83918,370.83918,370.83918,371.8393034,371.8393034,372.1403734,c,1,0.2928159,None,,,,,,,,,,,,,,,5,1,2025-10-03_16h02.32.470,motorselection,,2025.1.1,59.88375366,2025-10-03 16h02.39.754393 +0530
-150,z,155,3,38,z,1,0.2014524,None,,,,,38,3,155,3,,,,,372.1558518,,372.141524,372.1558518,373.155531,373.155531,373.155531,373.155531,373.155531,374.1552218,374.1552218,374.372963,z,1,0.2014524,None,,,,,,,,,,,,,,,5,1,2025-10-03_16h02.32.470,motorselection,,2025.1.1,59.88375366,2025-10-03 16h02.39.754393 +0530
-50,x,156,0,39,x,1,0.0128939,None,,,,,39,0,156,0,,,,,374.3885053,,374.3737648,374.3885053,375.3883971,375.3883971,375.3883971,375.3883971,375.3883971,376.3882651,376.3882651,376.4059321,x,1,0.0128939,None,,,,,,,,,,,,,,,5,1,2025-10-03_16h02.32.470,motorselection,,2025.1.1,59.88375366,2025-10-03 16h02.39.754393 +0530
150,v,157,1,39,v,1,0.1147027,None,,,,,39,1,157,1,,,,,376.421588,,376.4067136,376.421588,377.4052651,377.4052651,377.4052651,377.4052651,377.4218911,378.4214479,378.4214479,378.5389847,v,1,0.1147027,None,,,,,,,,,,,,,,,5,1,2025-10-03_16h02.32.470,motorselection,,2025.1.1,59.88375366,2025-10-03 16h02.39.754393 +0530
50,c,158,2,39,c,1,0.2277299,None,,,,,39,2,158,2,,,,,378.5546341,,378.5398035,378.5546341,379.5384586,379.5384586,379.5384586,379.5384586,379.555098,380.5550581,380.5550581,380.7879751,c,1,0.2277299,None,,,,,,,,,,,,,,,5,1,2025-10-03_16h02.32.470,motorselection,,2025.1.1,59.88375366,2025-10-03 16h02.39.754393 +0530
-150,z,159,3,39,z,1,0.1404136,None,,,,,39,3,159,3,,,,,380.8043239,,380.7882431,380.8043239,381.7882978,381.7882978,381.7882978,381.7882978,381.8047179,382.7879235,382.7879235,382.9394549,z,1,0.1404136,None,,,,,,,,,,,,,,,5,1,2025-10-03_16h02.32.470,motorselection,,2025.1.1,59.88375366,2025-10-03 16h02.39.754393 +0530
-50,x,160,0,40,x,1,0.296603,None,,,,,40,0,160,0,,,,,382.9543422,,382.94091,382.9543422,383.954698,383.954698,383.954698,383.954698,383.954698,384.9544781,384.9544781,385.2549699,x,1,0.296603,None,,,,,,,,,,,,,,,5,1,2025-10-03_16h02.32.470,motorselection,,2025.1.1,59.88375366,2025-10-03 16h02.39.754393 +0530
150,v,161,1,40,v,1,0.4143191,None,,,,,40,1,161,1,,,,,385.2709055,,385.2557581,385.2709055,386.2545057,386.2545057,386.2545057,386.2545057,386.2710659,387.2544043,387.2544043,387.6716567,v,1,0.4143191,None,,,,,,,,,,,,,,,5,1,2025-10-03_16h02.32.470,motorselection,,2025.1.1,59.88375366,2025-10-03 16h02.39.754393 +0530
50,c,162,2,40,c,1,0.5490707,None,,,,,40,2,162,2,,,,,387.6871285,,387.672584,387.6871285,388.687438,388.687438,388.687438,388.687438,388.687438,389.6866874,389.6866874,390.2390031,c,1,0.5490707,None,,,,,,,,,,,,,,,5,1,2025-10-03_16h02.32.470,motorselection,,2025.1.1,59.88375366,2025-10-03 16h02.39.754393 +0530
-150,z,163,3,40,z,1,0.3469981,None,,,,,40,3,163,3,,,,,390.2540444,,390.2403896,390.2540444,391.253852,391.253852,391.253852,391.253852,391.253852,392.2533569,392.2533569,392.6039864,z,1,0.3469981,None,,,,,,,,,,,,,,,5,1,2025-10-03_16h02.32.470,motorselection,,2025.1.1,59.88375366,2025-10-03 16h02.39.754393 +0530
-50,x,164,0,41,x,1,0.0975841,None,,,,,41,0,164,0,,,,,392.6198469,,392.6047559,392.6198469,393.6032505,393.6032505,393.6032505,393.6032505,393.6198999,394.603158,394.603158,394.7042501,x,1,0.0975841,None,,,,,,,,,,,,,,,5,1,2025-10-03_16h02.32.470,motorselection,,2025.1.1,59.88375366,2025-10-03 16h02.39.754393 +0530
150,v,165,1,41,v,1,0.48467,None,,,,,41,1,165,1,,,,,394.7197984,,394.7051777,394.7197984,395.7033805,395.7033805,395.7033805,395.7033805,395.7200469,396.7200393,396.7200393,397.2203122,v,1,0.48467,None,,,,,,,,,,,,,,,5,1,2025-10-03_16h02.32.470,motorselection,,2025.1.1,59.88375366,2025-10-03 16h02.39.754393 +0530
50,c,166,2,41,c,1,0.4114012,None,,,,,41,2,166,2,,,,,397.2365475,,397.2210461,397.2365475,398.2356939,398.2356939,398.2356939,398.2356939,398.2356939,399.2356106,399.2356106,399.6524917,c,1,0.4114012,None,,,,,,,,,,,,,,,5,1,2025-10-03_16h02.32.470,motorselection,,2025.1.1,59.88375366,2025-10-03 16h02.39.754393 +0530
-150,z,167,3,41,z,1,0.7895008,None,,,,,41,3,167,3,,,,,399.6687282,,399.6529211,399.6687282,400.6519862,400.6519862,400.6519862,400.6519862,400.6686406,401.6520116,401.6520116,402.4522859,z,1,0.7895008,None,,,,,,,,,,,,,,,5,1,2025-10-03_16h02.32.470,motorselection,,2025.1.1,59.88375366,2025-10-03 16h02.39.754393 +0530
-50,x,168,0,42,x,1,0.2243729,None,,,,,42,0,168,0,,,,,402.4687025,,402.4525788,402.4687025,403.4526427,403.4526427,403.4526427,403.4526427,403.4688519,404.4521691,404.4521691,404.6871156,x,1,0.2243729,None,,,,,,,,,,,,,,,5,1,2025-10-03_16h02.32.470,motorselection,,2025.1.1,59.88375366,2025-10-03 16h02.39.754393 +0530
150,v,169,1,42,v,1,0.4968277,None,,,,,42,1,169,1,,,,,404.7024619,,404.688372,404.7024619,405.7024542,405.7024542,405.7024542,405.7024542,405.7024542,406.7019357,406.7019357,407.2034867,v,1,0.4968277,None,,,,,,,,,,,,,,,5,1,2025-10-03_16h02.32.470,motorselection,,2025.1.1,59.88375366,2025-10-03 16h02.39.754393 +0530
50,c,170,2,42,c,1,0.2964794,None,,,,,42,2,170,2,,,,,407.2187847,,407.204731,407.2187847,408.2187706,408.2187706,408.2187706,408.2187706,408.2187706,409.2187853,409.2187853,409.5199635,c,1,0.2964794,None,,,,,,,,,,,,,,,5,1,2025-10-03_16h02.32.470,motorselection,,2025.1.1,59.88375366,2025-10-03 16h02.39.754393 +0530
-150,z,171,3,42,z,1,0.2649706,None,,,,,42,3,171,3,,,,,409.5352139,,409.5212945,409.5352139,410.5351126,410.5351126,410.5351126,410.5351126,410.5351126,411.5347028,411.5347028,411.8026348,z,1,0.2649706,None,,,,,,,,,,,,,,,5,1,2025-10-03_16h02.32.470,motorselection,,2025.1.1,59.88375366,2025-10-03 16h02.39.754393 +0530
-50,x,172,0,43,x,1,0.2696997,None,,,,,43,0,172,0,,,,,411.8180618,,411.8034528,411.8180618,412.8183315,412.8183315,412.8183315,412.8183315,412.8183315,413.8184241,413.8184241,414.1034299,x,1,0.2696997,None,,,,,,,,,,,,,,,5,1,2025-10-03_16h02.32.470,motorselection,,2025.1.1,59.88375366,2025-10-03 16h02.39.754393 +0530
150,v,173,1,43,v,1,0.2209734,None,,,,,43,1,173,1,,,,,414.1182176,,414.1048313,414.1182176,415.1181212,415.1181212,415.1181212,415.1181212,415.1181212,416.1176288,416.1176288,416.3518908,v,1,0.2209734,None,,,,,,,,,,,,,,,5,1,2025-10-03_16h02.32.470,motorselection,,2025.1.1,59.88375366,2025-10-03 16h02.39.754393 +0530
50,c,174,2,43,c,1,0.2554526,None,,,,,43,2,174,2,,,,,416.3678289,,416.3526628,416.3678289,417.351269,417.351269,417.351269,417.351269,417.3678958,418.3510023,418.3510023,418.6183599,c,1,0.2554526,None,,,,,,,,,,,,,,,5,1,2025-10-03_16h02.32.470,motorselection,,2025.1.1,59.88375366,2025-10-03 16h02.39.754393 +0530
-150,z,175,3,43,z,1,0.0177915,None,,,,,43,3,175,3,,,,,418.6340772,,418.6191229,418.6340772,419.6178024,419.6178024,419.6178024,419.6178024,419.6343771,420.6174787,420.6174787,420.6526052,z,1,0.0177915,None,,,,,,,,,,,,,,,5,1,2025-10-03_16h02.32.470,motorselection,,2025.1.1,59.88375366,2025-10-03 16h02.39.754393 +0530
-50,x,176,0,44,x,1,0.5555728,None,,,,,44,0,176,0,,,,,420.6673762,,420.6538673,420.6673762,421.6674439,421.6674439,421.6674439,421.6674439,421.6674439,422.6672196,422.6672196,423.2356711,x,1,0.5555728,None,,,,,,,,,,,,,,,5,1,2025-10-03_16h02.32.470,motorselection,,2025.1.1,59.88375366,2025-10-03 16h02.39.754393 +0530
150,v,177,1,44,v,1,0.330773,None,,,,,44,1,177,1,,,,,423.2503275,,423.2367733,423.2503275,424.2506061,424.2506061,424.2506061,424.2506061,424.2506061,425.250192,425.250192,425.5841072,v,1,0.330773,None,,,,,,,,,,,,,,,5,1,2025-10-03_16h02.32.470,motorselection,,2025.1.1,59.88375366,2025-10-03 16h02.39.754393 +0530
50,c,178,2,44,c,1,0.2252399,None,,,,,44,2,178,2,,,,,425.5998567,,425.5848198,425.5998567,426.5836327,426.5836327,426.5836327,426.5836327,426.5996352,427.5994247,427.5994247,427.8331628,c,1,0.2252399,None,,,,,,,,,,,,,,,5,1,2025-10-03_16h02.32.470,motorselection,,2025.1.1,59.88375366,2025-10-03 16h02.39.754393 +0530
-150,z,179,3,44,z,1,0.2158475,None,,,,,44,3,179,3,,,,,427.849233,,427.8336179,427.849233,428.8325695,428.8325695,428.8325695,428.8325695,428.8492894,429.8323763,429.8323763,430.0494413,z,1,0.2158475,None,,,,,,,,,,,,,,,5,1,2025-10-03_16h02.32.470,motorselection,,2025.1.1,59.88375366,2025-10-03 16h02.39.754393 +0530
-50,x,180,0,45,x,1,0.2544534,None,,,,,45,0,180,0,,,,,430.0656943,,430.0497003,430.0656943,431.049761,431.049761,431.049761,431.049761,431.0663816,432.0650905,432.0650905,432.3332112,x,1,0.2544534,None,,,,,,,,,,,,,,,5,1,2025-10-03_16h02.32.470,motorselection,,2025.1.1,59.88375366,2025-10-03 16h02.39.754393 +0530
150,v,181,1,45,v,1,0.2978136,None,,,,,45,1,181,1,,,,,432.3486793,,432.3343977,432.3486793,433.3483322,433.3483322,433.3483322,433.3483322,433.3483322,434.3480827,434.3480827,434.6501247,v,1,0.2978136,None,,,,,,,,,,,,,,,5,1,2025-10-03_16h02.32.470,motorselection,,2025.1.1,59.88375366,2025-10-03 16h02.39.754393 +0530
50,c,182,2,45,c,1,0.0793927,None,,,,,45,2,182,2,,,,,434.6653978,,434.6514312,434.6653978,435.6652593,435.6652593,435.6652593,435.6652593,435.6652593,436.6652342,436.6652342,436.7490386,c,1,0.0793927,None,,,,,,,,,,,,,,,5,1,2025-10-03_16h02.32.470,motorselection,,2025.1.1,59.88375366,2025-10-03 16h02.39.754393 +0530
-150,z,183,3,45,z,1,0.2330393,None,,,,,45,3,183,3,,,,,436.7645906,,436.7498363,436.7645906,437.7486733,437.7486733,437.7486733,437.7486733,437.765295,438.7489074,438.7489074,438.9832597,z,1,0.2330393,None,,,,,,,,,,,,,,,5,1,2025-10-03_16h02.32.470,motorselection,,2025.1.1,59.88375366,2025-10-03 16h02.39.754393 +0530
-50,x,184,0,46,x,1,0.2359957,None,,,,,46,0,184,0,,,,,438.9984789,,438.9840521,438.9984789,439.9990873,439.9990873,439.9990873,439.9990873,439.9990873,440.9991862,440.9991862,441.2487975,x,1,0.2359957,None,,,,,,,,,,,,,,,5,1,2025-10-03_16h02.32.470,motorselection,,2025.1.1,59.88375366,2025-10-03 16h02.39.754393 +0530
150,v,185,1,46,v,1,0.7245059,None,,,,,46,1,185,1,,,,,441.2648111,,441.2493405,441.2648111,442.2482132,442.2482132,442.2482132,442.2482132,442.2647825,443.2484148,443.2484148,443.9821839,v,1,0.7245059,None,,,,,,,,,,,,,,,5,1,2025-10-03_16h02.32.470,motorselection,,2025.1.1,59.88375366,2025-10-03 16h02.39.754393 +0530
50,c,186,2,46,c,1,0.5233944,None,,,,,46,2,186,2,,,,,443.9979719,,443.982881,443.9979719,444.9817503,444.9817503,444.9817503,444.9817503,444.998427,445.9817047,445.9817047,446.5158899,c,1,0.5233944,None,,,,,,,,,,,,,,,5,1,2025-10-03_16h02.32.470,motorselection,,2025.1.1,59.88375366,2025-10-03 16h02.39.754393 +0530
-150,z,187,3,46,z,1,0.2663947,None,,,,,46,3,187,3,,,,,446.5317172,,446.5171092,446.5317172,447.5312308,447.5312308,447.5312308,447.5312308,447.5312308,448.5307191,448.5307191,448.7984218,z,1,0.2663947,None,,,,,,,,,,,,,,,5,1,2025-10-03_16h02.32.470,motorselection,,2025.1.1,59.88375366,2025-10-03 16h02.39.754393 +0530
-50,x,188,0,47,x,1,0.3406513,None,,,,,47,0,188,0,,,,,448.8142378,,448.7991256,448.8142378,449.797644,449.797644,449.797644,449.797644,449.8144155,450.8139794,450.8139794,451.1658451,x,1,0.3406513,None,,,,,,,,,,,,,,,5,1,2025-10-03_16h02.32.470,motorselection,,2025.1.1,59.88375366,2025-10-03 16h02.39.754393 +0530
150,v,189,1,47,v,1,0.3224721,None,,,,,47,1,189,1,,,,,451.1807469,,451.1666438,451.1807469,452.1805985,452.1805985,452.1805985,452.1805985,452.1805985,453.1807102,453.1807102,453.5148343,v,1,0.3224721,None,,,,,,,,,,,,,,,5,1,2025-10-03_16h02.32.470,motorselection,,2025.1.1,59.88375366,2025-10-03 16h02.39.754393 +0530
50,c,190,2,47,c,1,0.3280099,None,,,,,47,2,190,2,,,,,453.5301913,,453.5153766,453.5301913,454.5308047,454.5308047,454.5308047,454.5308047,454.5308047,455.5141246,455.5141246,455.8478721,c,1,0.3280099,None,,,,,,,,,,,,,,,5,1,2025-10-03_16h02.32.470,motorselection,,2025.1.1,59.88375366,2025-10-03 16h02.39.754393 +0530
-150,z,191,3,47,z,1,0.3097833,None,,,,,47,3,191,3,,,,,455.863588,,455.848601,455.863588,456.847312,456.847312,456.847312,456.847312,456.8639514,457.8470562,457.8470562,458.1659294,z,1,0.3097833,None,,,,,,,,,,,,,,,5,1,2025-10-03_16h02.32.470,motorselection,,2025.1.1,59.88375366,2025-10-03 16h02.39.754393 +0530
-50,x,192,0,48,x,1,0.302147,None,,,,,48,0,192,0,,,,,458.1802864,,458.1678423,458.1802864,459.1802238,459.1802238,459.1802238,459.1802238,459.1802238,460.1804049,460.1804049,460.4966477,x,1,0.302147,None,,,,,,,,,,,,,,,5,1,2025-10-03_16h02.32.470,motorselection,,2025.1.1,59.88375366,2025-10-03 16h02.39.754393 +0530
150,v,193,1,48,v,1,0.4832304,None,,,,,48,1,193,1,,,,,460.5127285,,460.49689,460.5127285,461.495849,461.495849,461.495849,461.495849,461.5126671,462.4968401,462.4968401,462.9966643,v,1,0.4832304,None,,,,,,,,,,,,,,,5,1,2025-10-03_16h02.32.470,motorselection,,2025.1.1,59.88375366,2025-10-03 16h02.39.754393 +0530
50,c,194,2,48,c,1,0.2700545,None,,,,,48,2,194,2,,,,,463.0126539,,462.9970807,463.0126539,463.996545,463.996545,463.996545,463.996545,464.0131206,464.9964402,464.9964402,465.2803258,c,1,0.2700545,None,,,,,,,,,,,,,,,5,1,2025-10-03_16h02.32.470,motorselection,,2025.1.1,59.88375366,2025-10-03 16h02.39.754393 +0530
-150,z,195,3,48,z,1,0.2649546,None,,,,,48,3,195,3,,,,,465.2959705,,465.2811053,465.2959705,466.2963059,466.2963059,466.2963059,466.2963059,466.2963059,467.2961052,467.2961052,467.5635687,z,1,0.2649546,None,,,,,,,,,,,,,,,5,1,2025-10-03_16h02.32.470,motorselection,,2025.1.1,59.88375366,2025-10-03 16h02.39.754393 +0530
-50,x,196,0,49,x,1,0.4977658,None,,,,,49,0,196,0,,,,,467.5791053,,467.5643112,467.5791053,468.5795031,468.5795031,468.5795031,468.5795031,468.5795031,469.5794281,469.5794281,470.0799871,x,1,0.4977658,None,,,,,,,,,,,,,,,5,1,2025-10-03_16h02.32.470,motorselection,,2025.1.1,59.88375366,2025-10-03 16h02.39.754393 +0530
150,v,197,1,49,c,0,0.2418211,None,,,,,49,1,197,1,,,,,470.0954745,,470.0807892,470.0954745,471.0792894,471.0792894,471.0792894,471.0792894,471.0954764,472.0950742,472.0950742,472.3462811,c,0,0.2418211,None,,,,,,,,,,,,,,,5,1,2025-10-03_16h02.32.470,motorselection,,2025.1.1,59.88375366,2025-10-03 16h02.39.754393 +0530
50,c,198,2,49,c,1,0.2459328,None,,,,,49,2,198,2,,,,,472.3618136,,472.3469716,472.3618136,473.3624107,473.3624107,473.3624107,473.3624107,473.3624107,474.361608,474.361608,474.6134902,c,1,0.2459328,None,,,,,,,,,,,,,,,5,1,2025-10-03_16h02.32.470,motorselection,,2025.1.1,59.88375366,2025-10-03 16h02.39.754393 +0530
-150,z,199,3,49,z,1,0.6282904,None,,,,,49,3,199,3,,,,,474.6287574,,474.6151785,474.6287574,475.6288097,475.6288097,475.6288097,475.6288097,475.6288097,476.6287221,476.6287221,477.263867,z,1,0.6282904,None,,,,,,,,,,,,,,,5,1,2025-10-03_16h02.32.470,motorselection,,2025.1.1,59.88375366,2025-10-03 16h02.39.754393 +0530
-50,x,0,0,0,,,,,x,1,0.357381,None,,,,,0,0,0,0,477.3052825,,,,,,,,,,,,,,,,477.2998916,477.3052825,478.2862998,478.2862998,478.2862998,478.2862998,478.3111329,479.2784758,479.2784758,479.6454518,x,1,0.357381,None,5,1,2025-10-03_16h02.32.470,motorselection,,2025.1.1,59.88375366,2025-10-03 16h02.39.754393 +0530
-50,x,1,1,1,,,,,x,1,0.5274477,None,,,,,1,1,1,0,479.6613586,,,,,,,,,,,,,,,,479.6462806,479.6613586,480.6449133,480.6449133,480.6449133,480.6449133,480.6614924,481.6448289,481.6448289,482.1794237,x,1,0.5274477,None,5,1,2025-10-03_16h02.32.470,motorselection,,2025.1.1,59.88375366,2025-10-03 16h02.39.754393 +0530
150,v,2,2,0,,,,,v,1,0.4016933,None,,,,,0,2,2,1,482.1946414,,,,,,,,,,,,,,,,482.1807457,482.1946414,483.1947002,483.1947002,483.1947002,483.1947002,483.1947002,484.1946298,484.1946298,484.6118787,v,1,0.4016933,None,5,1,2025-10-03_16h02.32.470,motorselection,,2025.1.1,59.88375366,2025-10-03 16h02.39.754393 +0530
150,v,3,3,1,,,,,v,1,0.4244299,None,,,,,1,3,3,1,484.6274136,,,,,,,,,,,,,,,,484.6128872,484.6274136,485.61113,485.61113,485.61113,485.61113,485.6280019,486.6279008,486.6279008,487.0611452,v,1,0.4244299,None,5,1,2025-10-03_16h02.32.470,motorselection,,2025.1.1,59.88375366,2025-10-03 16h02.39.754393 +0530
150,v,4,4,2,,,,,v,1,0.4116846,None,,,,,2,4,4,1,487.0772915,,,,,,,,,,,,,,,,487.0617767,487.0772915,488.0609566,488.0609566,488.0609566,488.0609566,488.0774454,489.0607633,489.0607633,489.477868,v,1,0.4116846,None,5,1,2025-10-03_16h02.32.470,motorselection,,2025.1.1,59.88375366,2025-10-03 16h02.39.754393 +0530
-150,z,5,5,0,,,,,z,1,0.4088264,None,,,,,0,5,5,3,489.4936232,,,,,,,,,,,,,,,,489.4787036,489.4936232,490.4773392,490.4773392,490.4773392,490.4773392,490.4938782,491.4771876,491.4771876,491.8946043,z,1,0.4088264,None,5,1,2025-10-03_16h02.32.470,motorselection,,2025.1.1,59.88375366,2025-10-03 16h02.39.754393 +0530
-50,x,6,6,2,,,,,x,1,0.6407703,None,,,,,2,6,6,0,491.9100057,,,,,,,,,,,,,,,,491.8954894,491.9100057,492.9098011,492.9098011,492.9098011,492.9098011,492.9098011,493.9103472,493.9103472,494.5599636,x,1,0.6407703,None,5,1,2025-10-03_16h02.32.470,motorselection,,2025.1.1,59.88375366,2025-10-03 16h02.39.754393 +0530
150,v,7,7,3,,,,,v,1,0.3315036,None,,,,,3,7,7,1,494.5764754,,,,,,,,,,,,,,,,494.5604446,494.5764754,495.5600343,495.5600343,495.5600343,495.5600343,495.5763145,496.5599535,496.5599535,496.8938696,v,1,0.3315036,None,5,1,2025-10-03_16h02.32.470,motorselection,,2025.1.1,59.88375366,2025-10-03 16h02.39.754393 +0530
-150,z,8,8,1,,,,,z,1,0.3881454,None,,,,,1,8,8,3,496.9094912,,,,,,,,,,,,,,,,496.8946885,496.9094912,497.8931082,497.8931082,497.8931082,497.8931082,497.9099389,498.8931988,498.8931988,499.2936589,z,1,0.3881454,None,5,1,2025-10-03_16h02.32.470,motorselection,,2025.1.1,59.88375366,2025-10-03 16h02.39.754393 +0530
150,v,9,9,4,,,,,v,1,0.3131376,None,,,,,4,9,9,1,499.3092619,,,,,,,,,,,,,,,,499.2944502,499.3092619,500.2927823,500.2927823,500.2927823,500.2927823,500.3089356,501.3096475,501.3096475,501.6263911,v,1,0.3131376,None,5,1,2025-10-03_16h02.32.470,motorselection,,2025.1.1,59.88375366,2025-10-03 16h02.39.754393 +0530
50,c,10,10,0,,,,,c,1,0.3995071,None,,,,,0,10,10,2,501.6422433,,,,,,,,,,,,,,,,501.627074,501.6422433,502.6255671,502.6255671,502.6255671,502.6255671,502.6423008,503.626049,503.626049,504.0275166,c,1,0.3995071,None,5,1,2025-10-03_16h02.32.470,motorselection,,2025.1.1,59.88375366,2025-10-03 16h02.39.754393 +0530
50,c,11,11,1,,,,,c,1,0.3744118,None,,,,,1,11,11,2,504.0424524,,,,,,,,,,,,,,,,504.0288012,504.0424524,505.041771,505.041771,505.041771,505.041771,505.041771,506.0424474,506.0424474,506.4263442,c,1,0.3744118,None,5,1,2025-10-03_16h02.32.470,motorselection,,2025.1.1,59.88375366,2025-10-03 16h02.39.754393 +0530
-50,x,12,12,3,,,,,x,1,0.6787843,None,,,,,3,12,12,0,506.4418732,,,,,,,,,,,,,,,,506.427267,506.4418732,507.442174,507.442174,507.442174,507.442174,507.442174,508.4416437,508.4416437,509.1252944,x,1,0.6787843,None,5,1,2025-10-03_16h02.32.470,motorselection,,2025.1.1,59.88375366,2025-10-03 16h02.39.754393 +0530
-150,z,13,13,2,,,,,z,1,0.3432003,None,,,,,2,13,13,3,509.1415617,,,,,,,,,,,,,,,,509.125731,509.1415617,510.1243644,510.1243644,510.1243644,510.1243644,510.1410574,511.124863,511.124863,511.4749367,z,1,0.3432003,None,5,1,2025-10-03_16h02.32.470,motorselection,,2025.1.1,59.88375366,2025-10-03 16h02.39.754393 +0530
-50,x,14,14,4,,,,,x,1,0.5568211,None,,,,,4,14,14,0,511.4908384,,,,,,,,,,,,,,,,511.4753091,511.4908384,512.4744082,512.4744082,512.4744082,512.4744082,512.4907463,513.4750432,513.4750432,514.0422179,x,1,0.5568211,None,5,1,2025-10-03_16h02.32.470,motorselection,,2025.1.1,59.88375366,2025-10-03 16h02.39.754393 +0530
-50,x,15,15,5,,,,,x,1,0.4513328,None,,,,,5,15,15,0,514.0577638,,,,,,,,,,,,,,,,514.0431573,514.0577638,515.0571328,515.0571328,515.0571328,515.0571328,515.0571328,516.056789,516.056789,516.5248827,x,1,0.4513328,None,5,1,2025-10-03_16h02.32.470,motorselection,,2025.1.1,59.88375366,2025-10-03 16h02.39.754393 +0530
-150,z,16,16,3,,,,,z,1,0.3992077,None,,,,,3,16,16,3,516.5404816,,,,,,,,,,,,,,,,516.5264101,516.5404816,517.5401888,517.5401888,517.5401888,517.5401888,517.5401888,518.5402688,518.5402688,518.9407203,z,1,0.3992077,None,5,1,2025-10-03_16h02.32.470,motorselection,,2025.1.1,59.88375366,2025-10-03 16h02.39.754393 +0530
150,v,17,17,5,,,,,v,1,0.4823742,None,,,,,5,17,17,1,518.9563788,,,,,,,,,,,,,,,,518.9415438,518.9563788,519.940193,519.940193,519.940193,519.940193,519.9565994,520.9399963,520.9399963,521.4252214,v,1,0.4823742,None,5,1,2025-10-03_16h02.32.470,motorselection,,2025.1.1,59.88375366,2025-10-03 16h02.39.754393 +0530
-50,x,18,18,6,,,,,x,1,0.3568021,None,,,,,6,18,18,0,521.4404551,,,,,,,,,,,,,,,,521.4266467,521.4404551,522.4399963,522.4399963,522.4399963,522.4399963,522.4399963,523.4401121,523.4401121,523.8077869,x,1,0.3568021,None,5,1,2025-10-03_16h02.32.470,motorselection,,2025.1.1,59.88375366,2025-10-03 16h02.39.754393 +0530
-50,x,19,19,7,,,,,x,1,0.3708284,None,,,,,7,19,19,0,523.8235225,,,,,,,,,,,,,,,,523.8086239,523.8235225,524.8070762,524.8070762,524.8070762,524.8070762,524.8237054,525.8233516,525.8233516,526.2076911,x,1,0.3708284,None,5,1,2025-10-03_16h02.32.470,motorselection,,2025.1.1,59.88375366,2025-10-03 16h02.39.754393 +0530
-50,x,20,20,8,,,,,x,1,0.3785019,None,,,,,8,20,20,0,526.2232364,,,,,,,,,,,,,,,,526.2085245,526.2232364,527.2068859,527.2068859,527.2068859,527.2068859,527.2235954,528.2234496,528.2234496,528.6084189,x,1,0.3785019,None,5,1,2025-10-03_16h02.32.470,motorselection,,2025.1.1,59.88375366,2025-10-03 16h02.39.754393 +0530
-50,x,21,21,9,,,,,x,1,0.3730597,None,,,,,9,21,21,0,528.6233862,,,,,,,,,,,,,,,,528.6097851,528.6233862,529.6224447,529.6224447,529.6224447,529.6224447,529.6224447,530.6223405,530.6223405,531.0064067,x,1,0.3730597,None,5,1,2025-10-03_16h02.32.470,motorselection,,2025.1.1,59.88375366,2025-10-03 16h02.39.754393 +0530
150,v,22,22,6,,,,,v,1,0.4172709,None,,,,,6,22,22,1,531.0224167,,,,,,,,,,,,,,,,531.0068148,531.0224167,532.0221072,532.0221072,532.0221072,532.0221072,532.0221072,533.0054213,533.0054213,533.4392656,v,1,0.4172709,None,5,1,2025-10-03_16h02.32.470,motorselection,,2025.1.1,59.88375366,2025-10-03 16h02.39.754393 +0530
50,c,23,23,2,,,,,c,1,0.3520384,None,,,,,2,23,23,2,533.4553094,,,,,,,,,,,,,,,,533.4399493,533.4553094,534.4395942,534.4395942,534.4395942,534.4395942,534.4558081,535.4393205,535.4393205,535.8074513,c,1,0.3520384,None,5,1,2025-10-03_16h02.32.470,motorselection,,2025.1.1,59.88375366,2025-10-03 16h02.39.754393 +0530
50,c,24,24,3,,,,,c,1,0.4784241,None,,,,,3,24,24,2,535.822766,,,,,,,,,,,,,,,,535.8087845,535.822766,536.8225064,536.8225064,536.8225064,536.8225064,536.8225064,537.822464,537.822464,538.306875,c,1,0.4784241,None,5,1,2025-10-03_16h02.32.470,motorselection,,2025.1.1,59.88375366,2025-10-03 16h02.39.754393 +0530
50,c,25,25,4,,,,,c,1,0.3518559,None,,,,,4,25,25,2,538.3222921,,,,,,,,,,,,,,,,538.3080821,538.3222921,539.3223646,539.3223646,539.3223646,539.3223646,539.3223646,540.321805,540.321805,540.6892902,c,1,0.3518559,None,5,1,2025-10-03_16h02.32.470,motorselection,,2025.1.1,59.88375366,2025-10-03 16h02.39.754393 +0530
150,v,26,26,7,,,,,v,1,0.3666367,None,,,,,7,26,26,1,540.7048764,,,,,,,,,,,,,,,,540.6900326,540.7048764,541.6882976,541.6882976,541.6882976,541.6882976,541.7049258,542.6887897,542.6887897,543.0732102,v,1,0.3666367,None,5,1,2025-10-03_16h02.32.470,motorselection,,2025.1.1,59.88375366,2025-10-03 16h02.39.754393 +0530
-50,x,27,27,10,,,,,x,1,0.3414372,None,,,,,10,27,27,0,543.0883623,,,,,,,,,,,,,,,,543.0740408,543.0883623,544.0878451,544.0878451,544.0878451,544.0878451,544.0878451,545.0881112,545.0881112,545.4389774,x,1,0.3414372,None,5,1,2025-10-03_16h02.32.470,motorselection,,2025.1.1,59.88375366,2025-10-03 16h02.39.754393 +0530
150,v,28,28,8,,,,,v,1,0.5002763,None,,,,,8,28,28,1,545.4545457,,,,,,,,,,,,,,,,545.4397726,545.4545457,546.4384499,546.4384499,546.4384499,546.4384499,546.455189,547.4380662,547.4380662,547.955799,v,1,0.5002763,None,5,1,2025-10-03_16h02.32.470,motorselection,,2025.1.1,59.88375366,2025-10-03 16h02.39.754393 +0530
50,c,29,29,5,,,,,c,1,0.5202543,None,,,,,5,29,29,2,547.9714402,,,,,,,,,,,,,,,,547.9569043,547.9714402,548.9710195,548.9710195,548.9710195,548.9710195,548.9710195,549.9708891,549.9708891,550.5051654,c,1,0.5202543,None,5,1,2025-10-03_16h02.32.470,motorselection,,2025.1.1,59.88375366,2025-10-03 16h02.39.754393 +0530
150,v,30,30,9,,,,,v,1,0.4395465,None,,,,,9,30,30,1,550.5208046,,,,,,,,,,,,,,,,550.5063592,550.5208046,551.5044209,551.5044209,551.5044209,551.5044209,551.5210742,552.5045166,552.5045166,552.9559332,v,1,0.4395465,None,5,1,2025-10-03_16h02.32.470,motorselection,,2025.1.1,59.88375366,2025-10-03 16h02.39.754393 +0530
-150,z,31,31,4,,,,,z,1,0.4322603,None,,,,,4,31,31,3,552.9709793,,,,,,,,,,,,,,,,552.9572791,552.9709793,553.9708929,553.9708929,553.9708929,553.9708929,553.9708929,554.9707049,554.9707049,555.4043522,z,1,0.4322603,None,5,1,2025-10-03_16h02.32.470,motorselection,,2025.1.1,59.88375366,2025-10-03 16h02.39.754393 +0530
150,v,32,32,10,,,,,v,1,0.3890944,None,,,,,10,32,32,1,555.4200986,,,,,,,,,,,,,,,,555.4050016,555.4200986,556.4039401,556.4039401,556.4039401,556.4039401,556.4206842,557.4034585,557.4034585,557.8044961,v,1,0.3890944,None,5,1,2025-10-03_16h02.32.470,motorselection,,2025.1.1,59.88375366,2025-10-03 16h02.39.754393 +0530
-50,x,33,33,11,,,,,x,1,0.4331529,None,,,,,11,33,33,0,557.8199455,,,,,,,,,,,,,,,,557.8054287,557.8199455,558.8036961,558.8036961,558.8036961,558.8036961,558.82035,559.8197771,559.8197771,560.2696826,x,1,0.4331529,None,5,1,2025-10-03_16h02.32.470,motorselection,,2025.1.1,59.88375366,2025-10-03 16h02.39.754393 +0530
50,c,34,34,6,,,,,c,1,0.3844811,None,,,,,6,34,34,2,560.2859274,,,,,,,,,,,,,,,,560.2700826,560.2859274,561.2693047,561.2693047,561.2693047,561.2693047,561.2858808,562.2692223,562.2692223,562.6695454,c,1,0.3844811,None,5,1,2025-10-03_16h02.32.470,motorselection,,2025.1.1,59.88375366,2025-10-03 16h02.39.754393 +0530
-150,z,35,35,5,,,,,z,1,0.4321521,None,,,,,5,35,35,3,562.6857362,,,,,,,,,,,,,,,,562.6699852,562.6857362,563.6692414,563.6692414,563.6692414,563.6692414,563.6858256,564.669747,564.669747,565.1046012,z,1,0.4321521,None,5,1,2025-10-03_16h02.32.470,motorselection,,2025.1.1,59.88375366,2025-10-03 16h02.39.754393 +0530
50,c,36,36,7,,,,,c,1,0.4602927,None,,,,,7,36,36,2,565.1198672,,,,,,,,,,,,,,,,565.1060336,565.1198672,566.119731,566.119731,566.119731,566.119731,566.119731,567.1195647,567.1195647,567.5874647,c,1,0.4602927,None,5,1,2025-10-03_16h02.32.470,motorselection,,2025.1.1,59.88375366,2025-10-03 16h02.39.754393 +0530
-50,x,37,37,12,,,,,x,1,0.4298992,None,,,,,12,37,37,0,567.6028108,,,,,,,,,,,,,,,,567.58883,567.6028108,568.602624,568.602624,568.602624,568.602624,568.602624,569.6021415,569.6021415,570.0364047,x,1,0.4298992,None,5,1,2025-10-03_16h02.32.470,motorselection,,2025.1.1,59.88375366,2025-10-03 16h02.39.754393 +0530
50,c,38,38,8,,,,,c,1,0.6728018,None,,,,,8,38,38,2,570.0521759,,,,,,,,,,,,,,,,570.0372072,570.0521759,571.0356681,571.0356681,571.0356681,571.0356681,571.0525831,572.0520245,572.0520245,572.735899,c,1,0.6728018,None,5,1,2025-10-03_16h02.32.470,motorselection,,2025.1.1,59.88375366,2025-10-03 16h02.39.754393 +0530
-50,x,39,39,13,,,,,x,1,0.4406114,None,,,,,13,39,39,0,572.7518094,,,,,,,,,,,,,,,,572.7366493,572.7518094,573.7354619,573.7354619,573.7354619,573.7354619,573.7522334,574.7349737,574.7349737,575.1856924,x,1,0.4406114,None,5,1,2025-10-03_16h02.32.470,motorselection,,2025.1.1,59.88375366,2025-10-03 16h02.39.754393 +0530
-150,z,40,40,6,,,,,z,1,0.3709015,None,,,,,6,40,40,3,575.2016076,,,,,,,,,,,,,,,,575.1864724,575.2016076,576.1852844,576.1852844,576.1852844,576.1852844,576.2019403,577.201315,577.201315,577.5855843,z,1,0.3709015,None,5,1,2025-10-03_16h02.32.470,motorselection,,2025.1.1,59.88375366,2025-10-03 16h02.39.754393 +0530
150,v,41,41,11,,,,,v,1,0.656997,None,,,,,11,41,41,1,577.6012381,,,,,,,,,,,,,,,,577.5863453,577.6012381,578.5850953,578.5850953,578.5850953,578.5850953,578.6017672,579.5848459,579.5848459,580.2521612,v,1,0.656997,None,5,1,2025-10-03_16h02.32.470,motorselection,,2025.1.1,59.88375366,2025-10-03 16h02.39.754393 +0530
-50,x,42,42,14,,,,,x,1,0.3727001,None,,,,,14,42,42,0,580.2676057,,,,,,,,,,,,,,,,580.2531622,580.2676057,581.2515933,581.2515933,581.2515933,581.2515933,581.2682055,582.2674448,582.2674448,582.6515263,x,1,0.3727001,None,5,1,2025-10-03_16h02.32.470,motorselection,,2025.1.1,59.88375366,2025-10-03 16h02.39.754393 +0530
50,c,43,43,9,,,,,c,1,0.2942283,None,,,,,9,43,43,2,582.6673937,,,,,,,,,,,,,,,,582.6522051,582.6673937,583.6511983,583.6511983,583.6511983,583.6511983,583.6680515,584.6507259,584.6507259,584.9516948,c,1,0.2942283,None,5,1,2025-10-03_16h02.32.470,motorselection,,2025.1.1,59.88375366,2025-10-03 16h02.39.754393 +0530
50,c,44,44,10,,,,,z,0,0.0829932,None,,,,,10,44,44,2,584.9672305,,,,,,,,,,,,,,,,584.9526278,584.9672305,585.9509711,585.9509711,585.9509711,585.9509711,585.967251,586.9671495,586.9671495,587.0523129,z,0,0.0829932,None,5,1,2025-10-03_16h02.32.470,motorselection,,2025.1.1,59.88375366,2025-10-03 16h02.39.754393 +0530
-150,z,45,45,7,,,,,z,1,0.3767787,None,,,,,7,45,45,3,587.067654,,,,,,,,,,,,,,,,587.0538719,587.067654,588.0673855,588.0673855,588.0673855,588.0673855,588.0673855,589.0674281,589.0674281,589.4523207,z,1,0.3767787,None,5,1,2025-10-03_16h02.32.470,motorselection,,2025.1.1,59.88375366,2025-10-03 16h02.39.754393 +0530
-50,x,46,46,15,,,,,x,1,0.3133725,None,,,,,15,46,46,0,589.4674147,,,,,,,,,,,,,,,,589.4539122,589.4674147,590.467003,590.467003,590.467003,590.467003,590.467003,591.4666888,591.4666888,591.7840556,x,1,0.3133725,None,5,1,2025-10-03_16h02.32.470,motorselection,,2025.1.1,59.88375366,2025-10-03 16h02.39.754393 +0530
50,c,47,47,11,,,,,c,1,0.3476185,None,,,,,11,47,47,2,591.8000906,,,,,,,,,,,,,,,,591.7848734,591.8000906,592.7833147,592.7833147,592.7833147,592.7833147,592.8002544,593.8001163,593.8001163,594.1506199,c,1,0.3476185,None,5,1,2025-10-03_16h02.32.470,motorselection,,2025.1.1,59.88375366,2025-10-03 16h02.39.754393 +0530
50,c,48,48,12,,,,,c,1,0.6220098,None,,,,,12,48,48,2,594.1664121,,,,,,,,,,,,,,,,594.1514299,594.1664121,595.1500219,595.1500219,595.1500219,595.1500219,595.1666188,596.1498518,596.1498518,596.7837197,c,1,0.6220098,None,5,1,2025-10-03_16h02.32.470,motorselection,,2025.1.1,59.88375366,2025-10-03 16h02.39.754393 +0530
50,c,49,49,13,,,,,space,0,0.6147731,None,,,,,13,49,49,2,596.7994696,,,,,,,,,,,,,,,,596.7844555,596.7994696,597.7831535,597.7831535,597.7831535,597.7831535,597.7998632,598.7828648,598.7828648,599.4005025,space,0,0.6147731,None,5,1,2025-10-03_16h02.32.470,motorselection,,2025.1.1,59.88375366,2025-10-03 16h02.39.754393 +0530
-50,x,50,50,16,,,,,x,1,0.417866,None,,,,,16,50,50,0,599.4157694,,,,,,,,,,,,,,,,599.4014423,599.4157694,600.4160459,600.4160459,600.4160459,600.4160459,600.4160459,601.4154366,601.4154366,601.850027,x,1,0.417866,None,5,1,2025-10-03_16h02.32.470,motorselection,,2025.1.1,59.88375366,2025-10-03 16h02.39.754393 +0530
-150,z,51,51,8,,,,,z,1,0.3892168,None,,,,,8,51,51,3,601.8656529,,,,,,,,,,,,,,,,601.8508347,601.8656529,602.8492701,602.8492701,602.8492701,602.8492701,602.8658804,603.8650629,603.8650629,604.2673379,z,1,0.3892168,None,5,1,2025-10-03_16h02.32.470,motorselection,,2025.1.1,59.88375366,2025-10-03 16h02.39.754393 +0530
50,c,52,52,14,,,,,c,1,0.3426443,None,,,,,14,52,52,2,604.282529,,,,,,,,,,,,,,,,604.2686794,604.282529,605.2825207,605.2825207,605.2825207,605.2825207,605.2825207,606.282381,606.282381,606.6360446,c,1,0.3426443,None,5,1,2025-10-03_16h02.32.470,motorselection,,2025.1.1,59.88375366,2025-10-03 16h02.39.754393 +0530
-150,z,53,53,9,,,,,z,1,0.5872969,None,,,,,9,53,53,3,606.6490248,,,,,,,,,,,,,,,,606.6375032,606.6490248,607.6487543,607.6487543,607.6487543,607.6487543,607.6487543,608.6483238,608.6483238,609.250793,z,1,0.5872969,None,5,1,2025-10-03_16h02.32.470,motorselection,,2025.1.1,59.88375366,2025-10-03 16h02.39.754393 +0530
-150,z,54,54,10,,,,,z,1,0.3958671,None,,,,,10,54,54,3,609.2652508,,,,,,,,,,,,,,,,609.252982,609.2652508,610.2652831,610.2652831,610.2652831,610.2652831,610.2652831,611.2651457,611.2651457,611.6657348,z,1,0.3958671,None,5,1,2025-10-03_16h02.32.470,motorselection,,2025.1.1,59.88375366,2025-10-03 16h02.39.754393 +0530
-150,z,55,55,11,,,,,z,1,0.5358152,None,,,,,11,55,55,3,611.6813238,,,,,,,,,,,,,,,,611.6666719,611.6813238,612.681624,612.681624,612.681624,612.681624,612.681624,613.6808515,613.6808515,614.2332781,z,1,0.5358152,None,5,1,2025-10-03_16h02.32.470,motorselection,,2025.1.1,59.88375366,2025-10-03 16h02.39.754393 +0530
150,v,56,56,12,,,,,v,1,0.4493535,None,,,,,12,56,56,1,614.2482047,,,,,,,,,,,,,,,,614.2358364,614.2482047,615.2480116,615.2480116,615.2480116,615.2480116,615.2480116,616.2475248,616.2475248,616.6983963,v,1,0.4493535,None,5,1,2025-10-03_16h02.32.470,motorselection,,2025.1.1,59.88375366,2025-10-03 16h02.39.754393 +0530
150,v,57,57,13,,,,,v,1,0.5735224,None,,,,,13,57,57,1,616.714522,,,,,,,,,,,,,,,,616.6992367,616.714522,617.7140914,617.7140914,617.7140914,617.7140914,617.7140914,618.7139298,618.7139298,619.2982083,v,1,0.5735224,None,5,1,2025-10-03_16h02.32.470,motorselection,,2025.1.1,59.88375366,2025-10-03 16h02.39.754393 +0530
-50,x,58,58,17,,,,,x,1,0.3326811,None,,,,,17,58,58,0,619.3138909,,,,,,,,,,,,,,,,619.29905,619.3138909,620.312847,620.312847,620.312847,620.312847,620.3294432,621.3125218,621.3125218,621.6463713,x,1,0.3326811,None,5,1,2025-10-03_16h02.32.470,motorselection,,2025.1.1,59.88375366,2025-10-03 16h02.39.754393 +0530
-50,x,59,59,18,,,,,x,1,0.5150911,None,,,,,18,59,59,0,621.662368,,,,,,,,,,,,,,,,621.647165,621.662368,622.6459917,622.6459917,622.6459917,622.6459917,622.6624897,623.6454405,623.6454405,624.1627693,x,1,0.5150911,None,5,1,2025-10-03_16h02.32.470,motorselection,,2025.1.1,59.88375366,2025-10-03 16h02.39.754393 +0530
50,c,60,60,15,,,,,c,1,0.3418608,None,,,,,15,60,60,2,624.1789351,,,,,,,,,,,,,,,,624.1630661,624.1789351,625.1623209,625.1623209,625.1623209,625.1623209,625.1789407,626.1628057,626.1628057,626.5137423,c,1,0.3418608,None,5,1,2025-10-03_16h02.32.470,motorselection,,2025.1.1,59.88375366,2025-10-03 16h02.39.754393 +0530
-150,z,61,61,12,,,,,z,1,0.816915,None,,,,,12,61,61,3,626.5295371,,,,,,,,,,,,,,,,626.5145483,626.5295371,627.5295425,627.5295425,627.5295425,627.5295425,627.5295425,628.5133406,628.5133406,629.3471871,z,1,0.816915,None,5,1,2025-10-03_16h02.32.470,motorselection,,2025.1.1,59.88375366,2025-10-03 16h02.39.754393 +0530
-50,x,62,62,19,,,,,x,1,0.3978605,None,,,,,19,62,62,0,629.3628855,,,,,,,,,,,,,,,,629.3480239,629.3628855,630.3464588,630.3464588,630.3464588,630.3464588,630.3630871,631.3626963,631.3626963,631.7632986,x,1,0.3978605,None,5,1,2025-10-03_16h02.32.470,motorselection,,2025.1.1,59.88375366,2025-10-03 16h02.39.754393 +0530
-150,z,63,63,13,,,,,z,1,0.4011553,None,,,,,13,63,63,3,631.7792348,,,,,,,,,,,,,,,,631.7641559,631.7792348,632.7627912,632.7627912,632.7627912,632.7627912,632.779525,633.7628315,633.7628315,634.1809335,z,1,0.4011553,None,5,1,2025-10-03_16h02.32.470,motorselection,,2025.1.1,59.88375366,2025-10-03 16h02.39.754393 +0530
50,c,64,64,16,,,,,c,1,0.3759083,None,,,,,16,64,64,2,634.1960648,,,,,,,,,,,,,,,,634.1822985,634.1960648,635.1960666,635.1960666,635.1960666,635.1960666,635.1960666,636.195919,636.195919,636.5796314,c,1,0.3759083,None,5,1,2025-10-03_16h02.32.470,motorselection,,2025.1.1,59.88375366,2025-10-03 16h02.39.754393 +0530
-150,z,65,65,14,,,,,z,1,0.4281249,None,,,,,14,65,65,3,636.5953904,,,,,,,,,,,,,,,,636.5803833,636.5953904,637.5793266,637.5793266,637.5793266,637.5793266,637.5958942,638.5790888,638.5790888,639.0137868,z,1,0.4281249,None,5,1,2025-10-03_16h02.32.470,motorselection,,2025.1.1,59.88375366,2025-10-03 16h02.39.754393 +0530
-50,x,66,66,20,,,,,x,1,0.3256208,None,,,,,20,66,66,0,639.0288333,,,,,,,,,,,,,,,,639.0150885,639.0288333,640.0289292,640.0289292,640.0289292,640.0289292,640.0289292,641.0289565,641.0289565,641.3624803,x,1,0.3256208,None,5,1,2025-10-03_16h02.32.470,motorselection,,2025.1.1,59.88375366,2025-10-03 16h02.39.754393 +0530
-150,z,67,67,15,,,,,z,1,0.5899408,None,,,,,15,67,67,3,641.3788097,,,,,,,,,,,,,,,,641.3632079,641.3788097,642.3621572,642.3621572,642.3621572,642.3621572,642.3785008,643.3619208,643.3619208,643.962912,z,1,0.5899408,None,5,1,2025-10-03_16h02.32.470,motorselection,,2025.1.1,59.88375366,2025-10-03 16h02.39.754393 +0530
150,v,68,68,14,,,,,v,1,0.5328885,None,,,,,14,68,68,1,643.9781611,,,,,,,,,,,,,,,,643.9645476,643.9781611,644.9779085,644.9779085,644.9779085,644.9779085,644.9779085,645.9783033,645.9783033,646.5282996,v,1,0.5328885,None,5,1,2025-10-03_16h02.32.470,motorselection,,2025.1.1,59.88375366,2025-10-03 16h02.39.754393 +0530
-150,z,69,69,16,,,,,z,1,0.4128559,None,,,,,16,69,69,3,646.5440805,,,,,,,,,,,,,,,,646.5290344,646.5440805,647.528125,647.528125,647.528125,647.528125,647.5448954,648.5276226,648.5276226,648.9453953,z,1,0.4128559,None,5,1,2025-10-03_16h02.32.470,motorselection,,2025.1.1,59.88375366,2025-10-03 16h02.39.754393 +0530
-150,z,70,70,17,,,,,x,0,0.8598575,None,,,,,17,70,70,3,648.9609041,,,,,,,,,,,,,,,,648.9462062,648.9609041,649.9605875,649.9605875,649.9605875,649.9605875,649.9605875,650.9605254,650.9605254,651.8280982,x,0,0.8598575,None,5,1,2025-10-03_16h02.32.470,motorselection,,2025.1.1,59.88375366,2025-10-03 16h02.39.754393 +0530
50,c,71,71,17,,,,,c,1,0.3304863,None,,,,,17,71,71,2,651.8439378,,,,,,,,,,,,,,,,651.8288147,651.8439378,652.8436364,652.8436364,652.8436364,652.8436364,652.8436364,653.8277123,653.8277123,654.1622215,c,1,0.3304863,None,5,1,2025-10-03_16h02.32.470,motorselection,,2025.1.1,59.88375366,2025-10-03 16h02.39.754393 +0530
-150,z,72,72,18,,,,,z,1,0.5350498,None,,,,,18,72,72,3,654.1775947,,,,,,,,,,,,,,,,654.1637888,654.1775947,655.1769584,655.1769584,655.1769584,655.1769584,655.1769584,656.17688,656.17688,656.7277479,z,1,0.5350498,None,5,1,2025-10-03_16h02.32.470,motorselection,,2025.1.1,59.88375366,2025-10-03 16h02.39.754393 +0530
50,c,73,73,18,,,,,c,1,0.3924839,None,,,,,18,73,73,2,656.7440864,,,,,,,,,,,,,,,,656.7291581,656.7440864,657.7433807,657.7433807,657.7433807,657.7433807,657.7596266,658.7428081,658.7428081,659.1431454,c,1,0.3924839,None,5,1,2025-10-03_16h02.32.470,motorselection,,2025.1.1,59.88375366,2025-10-03 16h02.39.754393 +0530
150,v,74,74,15,,,,,v,1,0.3425823,None,,,,,15,74,74,1,659.1594035,,,,,,,,,,,,,,,,659.1435435,659.1594035,660.1428109,660.1428109,660.1428109,660.1428109,660.1592333,661.1426156,661.1426156,661.4937683,v,1,0.3425823,None,5,1,2025-10-03_16h02.32.470,motorselection,,2025.1.1,59.88375366,2025-10-03 16h02.39.754393 +0530
50,c,75,75,19,,,,,c,1,0.3151573,None,,,,,19,75,75,2,661.5094477,,,,,,,,,,,,,,,,661.4944437,661.5094477,662.4932699,662.4932699,662.4932699,662.4932699,662.5099575,663.5094488,663.5094488,663.8269979,c,1,0.3151573,None,5,1,2025-10-03_16h02.32.470,motorselection,,2025.1.1,59.88375366,2025-10-03 16h02.39.754393 +0530
150,v,76,76,16,,,,,v,1,0.4846207,None,,,,,16,76,76,1,663.8427795,,,,,,,,,,,,,,,,663.8278204,663.8427795,664.8264283,664.8264283,664.8264283,664.8264283,664.8430752,665.8259292,665.8259292,666.3273066,v,1,0.4846207,None,5,1,2025-10-03_16h02.32.470,motorselection,,2025.1.1,59.88375366,2025-10-03 16h02.39.754393 +0530
-150,z,77,77,19,,,,,z,1,0.4904585,None,,,,,19,77,77,3,666.3422723,,,,,,,,,,,,,,,,666.3280271,666.3422723,667.3427249,667.3427249,667.3427249,667.3427249,667.3427249,668.3423411,668.3423411,668.8433444,z,1,0.4904585,None,5,1,2025-10-03_16h02.32.470,motorselection,,2025.1.1,59.88375366,2025-10-03 16h02.39.754393 +0530
150,v,78,78,17,,,,,v,1,0.4717308,None,,,,,17,78,78,1,668.8589039,,,,,,,,,,,,,,,,668.8441806,668.8589039,669.8587889,669.8587889,669.8587889,669.8587889,669.8587889,670.8589346,670.8589346,671.3429562,v,1,0.4717308,None,5,1,2025-10-03_16h02.32.470,motorselection,,2025.1.1,59.88375366,2025-10-03 16h02.39.754393 +0530
50,c,79,79,20,,,,,c,1,0.424311,None,,,,,20,79,79,2,671.3586594,,,,,,,,,,,,,,,,671.3438003,671.3586594,672.358572,672.358572,672.358572,672.358572,672.358572,673.342249,673.342249,673.7772289,c,1,0.424311,None,5,1,2025-10-03_16h02.32.470,motorselection,,2025.1.1,59.88375366,2025-10-03 16h02.39.754393 +0530
-150,z,80,80,20,,,,,z,1,0.4593498,None,,,,,20,80,80,3,673.7921022,,,,,,,,,,,,,,,,673.7786523,673.7921022,674.7922126,674.7922126,674.7922126,674.7922126,674.7922126,675.7921395,675.7921395,676.25909,z,1,0.4593498,None,5,1,2025-10-03_16h02.32.470,motorselection,,2025.1.1,59.88375366,2025-10-03 16h02.39.754393 +0530
150,v,81,81,18,,,,,v,1,0.41113,None,,,,,18,81,81,1,676.2753469,,,,,,,,,,,,,,,,676.2599184,676.2753469,677.2590013,677.2590013,677.2590013,677.2590013,677.2750096,678.2748641,678.2748641,678.6922285,v,1,0.41113,None,5,1,2025-10-03_16h02.32.470,motorselection,,2025.1.1,59.88375366,2025-10-03 16h02.39.754393 +0530
150,v,82,82,19,,,,,v,1,0.6097065,None,,,,,19,82,82,1,678.7078353,,,,,,,,,,,,,,,,678.6930834,678.7078353,679.6916078,679.6916078,679.6916078,679.6916078,679.7080342,680.7081146,680.7081146,681.32651,v,1,0.6097065,None,5,1,2025-10-03_16h02.32.470,motorselection,,2025.1.1,59.88375366,2025-10-03 16h02.39.754393 +0530
50,c,83,83,21,,,,,c,1,0.4896032,None,,,,,21,83,83,2,681.3413791,,,,,,,,,,,,,,,,681.3278695,681.3413791,682.3414742,682.3414742,682.3414742,682.3414742,682.3414742,683.3410324,683.3410324,683.8414377,c,1,0.4896032,None,5,1,2025-10-03_16h02.32.470,motorselection,,2025.1.1,59.88375366,2025-10-03 16h02.39.754393 +0530
-150,z,84,84,21,,,,,z,1,0.390826,None,,,,,21,84,84,3,683.8573962,,,,,,,,,,,,,,,,683.842396,683.8573962,684.8406372,684.8406372,684.8406372,684.8406372,684.8573161,685.8404272,685.8404272,686.2413262,z,1,0.390826,None,5,1,2025-10-03_16h02.32.470,motorselection,,2025.1.1,59.88375366,2025-10-03 16h02.39.754393 +0530
-150,z,85,85,22,,,,,z,1,0.4926224,None,,,,,22,85,85,3,686.2570697,,,,,,,,,,,,,,,,686.2420713,686.2570697,687.2409185,687.2409185,687.2409185,687.2409185,687.2572792,688.2569539,688.2569539,688.7578666,z,1,0.4926224,None,5,1,2025-10-03_16h02.32.470,motorselection,,2025.1.1,59.88375366,2025-10-03 16h02.39.754393 +0530
-150,z,86,86,23,,,,,z,1,0.6893333,None,,,,,23,86,86,3,688.7735781,,,,,,,,,,,,,,,,688.7586946,688.7735781,689.757342,689.757342,689.757342,689.757342,689.7738885,690.7572676,690.7572676,691.4576801,z,1,0.6893333,None,5,1,2025-10-03_16h02.32.470,motorselection,,2025.1.1,59.88375366,2025-10-03 16h02.39.754393 +0530
-50,x,87,87,21,,,,,x,1,0.3942023,None,,,,,21,87,87,0,691.4733337,,,,,,,,,,,,,,,,691.4584941,691.4733337,692.4733927,692.4733927,692.4733927,692.4733927,692.4733927,693.473199,693.473199,693.8742255,x,1,0.3942023,None,5,1,2025-10-03_16h02.32.470,motorselection,,2025.1.1,59.88375366,2025-10-03 16h02.39.754393 +0530
50,c,88,88,22,,,,,c,1,0.4294257,None,,,,,22,88,88,2,693.8897127,,,,,,,,,,,,,,,,693.8750478,693.8897127,694.8734167,694.8734167,694.8734167,694.8734167,694.8901362,695.8892254,695.8892254,696.3248961,c,1,0.4294257,None,5,1,2025-10-03_16h02.32.470,motorselection,,2025.1.1,59.88375366,2025-10-03 16h02.39.754393 +0530
-150,z,89,89,24,,,,,z,1,0.4580786,None,,,,,24,89,89,3,696.3397922,,,,,,,,,,,,,,,,696.3261582,696.3397922,697.3397808,697.3397808,697.3397808,697.3397808,697.3397808,698.339737,698.339737,698.8067415,z,1,0.4580786,None,5,1,2025-10-03_16h02.32.470,motorselection,,2025.1.1,59.88375366,2025-10-03 16h02.39.754393 +0530
50,c,90,90,23,,,,,c,1,0.5526574,None,,,,,23,90,90,2,698.8229238,,,,,,,,,,,,,,,,698.8075018,698.8229238,699.806068,699.806068,699.806068,699.806068,699.8228133,700.8221779,700.8221779,701.3889908,c,1,0.5526574,None,5,1,2025-10-03_16h02.32.470,motorselection,,2025.1.1,59.88375366,2025-10-03 16h02.39.754393 +0530
50,c,91,91,24,,,,,c,1,0.4043307,None,,,,,24,91,91,2,701.4050865,,,,,,,,,,,,,,,,701.3893364,701.4050865,702.3884188,702.3884188,702.3884188,702.3884188,702.4052769,703.3882711,703.3882711,703.8054159,c,1,0.4043307,None,5,1,2025-10-03_16h02.32.470,motorselection,,2025.1.1,59.88375366,2025-10-03 16h02.39.754393 +0530
150,v,92,92,20,,,,,v,1,0.3911072,None,,,,,20,92,92,1,703.821702,,,,,,,,,,,,,,,,703.8058596,703.821702,704.8048082,704.8048082,704.8048082,704.8048082,704.8216361,705.805643,705.805643,706.207075,v,1,0.3911072,None,5,1,2025-10-03_16h02.32.470,motorselection,,2025.1.1,59.88375366,2025-10-03 16h02.39.754393 +0530
-50,x,93,93,22,,,,,x,1,0.4363077,None,,,,,22,93,93,0,706.2221975,,,,,,,,,,,,,,,,706.2085801,706.2221975,707.2215163,707.2215163,707.2215163,707.2215163,707.2215163,708.2218457,708.2218457,708.6735032,x,1,0.4363077,None,5,1,2025-10-03_16h02.32.470,motorselection,,2025.1.1,59.88375366,2025-10-03 16h02.39.754393 +0530
50,c,94,94,25,,,,,c,1,0.5078925,None,,,,,25,94,94,2,708.6887298,,,,,,,,,,,,,,,,708.67642,708.6887298,709.6885817,709.6885817,709.6885817,709.6885817,709.6885817,710.6885514,710.6885514,711.2057877,c,1,0.5078925,None,5,1,2025-10-03_16h02.32.470,motorselection,,2025.1.1,59.88375366,2025-10-03 16h02.39.754393 +0530
150,v,95,95,21,,,,,v,1,0.3219635,None,,,,,21,95,95,1,711.2213094,,,,,,,,,,,,,,,,711.2065951,711.2213094,712.2212392,712.2212392,712.2212392,712.2212392,712.2212392,713.2216119,713.2216119,713.5555751,v,1,0.3219635,None,5,1,2025-10-03_16h02.32.470,motorselection,,2025.1.1,59.88375366,2025-10-03 16h02.39.754393 +0530
50,c,96,96,26,,,,,c,1,0.3666221,None,,,,,26,96,96,2,713.5711624,,,,,,,,,,,,,,,,713.5564018,713.5711624,714.5713951,714.5713951,714.5713951,714.5713951,714.5713951,715.5713805,715.5713805,715.9398539,c,1,0.3666221,None,5,1,2025-10-03_16h02.32.470,motorselection,,2025.1.1,59.88375366,2025-10-03 16h02.39.754393 +0530
-150,z,97,97,25,,,,,z,1,0.4008772,None,,,,,25,97,97,3,715.9546441,,,,,,,,,,,,,,,,715.9419855,715.9546441,716.9545634,716.9545634,716.9545634,716.9545634,716.9545634,717.9544958,717.9544958,718.3725004,z,1,0.4008772,None,5,1,2025-10-03_16h02.32.470,motorselection,,2025.1.1,59.88375366,2025-10-03 16h02.39.754393 +0530
50,c,98,98,27,,,,,c,1,0.3981244,None,,,,,27,98,98,2,718.3876643,,,,,,,,,,,,,,,,718.3740778,718.3876643,719.3871914,719.3871914,719.3871914,719.3871914,719.3871914,720.3871084,720.3871084,720.7882067,c,1,0.3981244,None,5,1,2025-10-03_16h02.32.470,motorselection,,2025.1.1,59.88375366,2025-10-03 16h02.39.754393 +0530
-150,z,99,99,26,,,,,z,1,0.4663157,None,,,,,26,99,99,3,720.803694,,,,,,,,,,,,,,,,720.7891713,720.803694,721.7873146,721.7873146,721.7873146,721.7873146,721.8036198,722.8035345,722.8035345,723.271416,z,1,0.4663157,None,5,1,2025-10-03_16h02.32.470,motorselection,,2025.1.1,59.88375366,2025-10-03 16h02.39.754393 +0530
-150,z,100,100,27,,,,,z,1,0.549264,None,,,,,27,100,100,3,723.2867087,,,,,,,,,,,,,,,,723.2721806,723.2867087,724.2870294,724.2870294,724.2870294,724.2870294,724.2870294,725.2869998,725.2869998,725.8384945,z,1,0.549264,None,5,1,2025-10-03_16h02.32.470,motorselection,,2025.1.1,59.88375366,2025-10-03 16h02.39.754393 +0530
50,c,101,101,28,,,,,c,1,0.5494849,None,,,,,28,101,101,2,725.8535152,,,,,,,,,,,,,,,,725.8397945,725.8535152,726.8536223,726.8536223,726.8536223,726.8536223,726.8536223,727.8534864,727.8534864,728.4041399,c,1,0.5494849,None,5,1,2025-10-03_16h02.32.470,motorselection,,2025.1.1,59.88375366,2025-10-03 16h02.39.754393 +0530
-50,x,102,102,23,,,,,x,1,0.3227245,None,,,,,23,102,102,0,728.4196201,,,,,,,,,,,,,,,,728.4049646,728.4196201,729.419883,729.419883,729.419883,729.419883,729.419883,730.4199236,730.4199236,730.7536132,x,1,0.3227245,None,5,1,2025-10-03_16h02.32.470,motorselection,,2025.1.1,59.88375366,2025-10-03 16h02.39.754393 +0530
-150,z,103,103,28,,,,,z,1,0.3473367,None,,,,,28,103,103,3,730.7693131,,,,,,,,,,,,,,,,730.7543271,730.7693131,731.7529454,731.7529454,731.7529454,731.7529454,731.769828,732.7691961,732.7691961,733.1198027,z,1,0.3473367,None,5,1,2025-10-03_16h02.32.470,motorselection,,2025.1.1,59.88375366,2025-10-03 16h02.39.754393 +0530
-50,x,104,104,24,,,,,x,1,0.4628572,None,,,,,24,104,104,0,733.1356984,,,,,,,,,,,,,,,,733.1205098,733.1356984,734.1354737,734.1354737,734.1354737,734.1354737,734.1354737,735.1194655,735.1194655,735.5864087,x,1,0.4628572,None,5,1,2025-10-03_16h02.32.470,motorselection,,2025.1.1,59.88375366,2025-10-03 16h02.39.754393 +0530
-50,x,105,105,25,,,,,x,1,0.3890041,None,,,,,25,105,105,0,735.60229,,,,,,,,,,,,,,,,735.5872282,735.60229,736.5858148,736.5858148,736.5858148,736.5858148,736.6025446,737.6020544,737.6020544,738.0027679,x,1,0.3890041,None,5,1,2025-10-03_16h02.32.470,motorselection,,2025.1.1,59.88375366,2025-10-03 16h02.39.754393 +0530
-150,z,106,106,29,,,,,z,1,0.4173211,None,,,,,29,106,106,3,738.0185523,,,,,,,,,,,,,,,,738.0035026,738.0185523,739.0022527,739.0022527,739.0022527,739.0022527,739.0189251,740.0184166,740.0184166,740.4523699,z,1,0.4173211,None,5,1,2025-10-03_16h02.32.470,motorselection,,2025.1.1,59.88375366,2025-10-03 16h02.39.754393 +0530
-150,z,107,107,30,,,,,z,1,0.4825237,None,,,,,30,107,107,3,740.4681892,,,,,,,,,,,,,,,,740.4530439,740.4681892,741.4522289,741.4522289,741.4522289,741.4522289,741.4688929,742.4680975,742.4680975,742.9527163,z,1,0.4825237,None,5,1,2025-10-03_16h02.32.470,motorselection,,2025.1.1,59.88375366,2025-10-03 16h02.39.754393 +0530
-50,x,108,108,26,,,,,x,1,0.3398523,None,,,,,26,108,108,0,742.9684057,,,,,,,,,,,,,,,,742.9536657,742.9684057,743.9684923,743.9684923,743.9684923,743.9684923,743.9684923,744.9677192,744.9677192,745.3198588,x,1,0.3398523,None,5,1,2025-10-03_16h02.32.470,motorselection,,2025.1.1,59.88375366,2025-10-03 16h02.39.754393 +0530
150,v,109,109,22,,,,,v,1,0.3946363,None,,,,,22,109,109,1,745.3351265,,,,,,,,,,,,,,,,745.3212725,745.3351265,746.3347798,746.3347798,746.3347798,746.3347798,746.3347798,747.3343051,747.3343051,747.7353202,v,1,0.3946363,None,5,1,2025-10-03_16h02.32.470,motorselection,,2025.1.1,59.88375366,2025-10-03 16h02.39.754393 +0530
50,c,110,110,29,,,,,c,1,0.3107232,None,,,,,29,110,110,2,747.7506669,,,,,,,,,,,,,,,,747.7360389,747.7506669,748.7347183,748.7347183,748.7347183,748.7347183,748.7511907,749.7513456,749.7513456,750.0683738,c,1,0.3107232,None,5,1,2025-10-03_16h02.32.470,motorselection,,2025.1.1,59.88375366,2025-10-03 16h02.39.754393 +0530
-50,x,111,111,27,,,,,z,0,0.2940459,None,,,,,27,111,111,0,750.0842182,,,,,,,,,,,,,,,,750.0702286,750.0842182,751.0677336,751.0677336,751.0677336,751.0677336,751.0845013,752.0676208,752.0676208,752.3684629,z,0,0.2940459,None,5,1,2025-10-03_16h02.32.470,motorselection,,2025.1.1,59.88375366,2025-10-03 16h02.39.754393 +0530
-150,z,112,112,31,,,,,z,1,0.4074221,None,,,,,31,112,112,3,752.3838151,,,,,,,,,,,,,,,,752.3692635,752.3838151,753.3841863,753.3841863,753.3841863,753.3841863,753.3841863,754.3837238,754.3837238,754.801285,z,1,0.4074221,None,5,1,2025-10-03_16h02.32.470,motorselection,,2025.1.1,59.88375366,2025-10-03 16h02.39.754393 +0530
150,v,113,113,23,,,,,v,1,0.5274825,None,,,,,23,113,113,1,754.8169764,,,,,,,,,,,,,,,,754.8021333,754.8169764,755.8005978,755.8005978,755.8005978,755.8005978,755.8172769,756.8167901,756.8167901,757.3510741,v,1,0.5274825,None,5,1,2025-10-03_16h02.32.470,motorselection,,2025.1.1,59.88375366,2025-10-03 16h02.39.754393 +0530
-50,x,114,114,28,,,,,x,1,0.4644192,None,,,,,28,114,114,0,757.366706,,,,,,,,,,,,,,,,757.3518736,757.366706,758.3669737,758.3669737,758.3669737,758.3669737,758.3669737,759.3503785,759.3503785,759.8176326,x,1,0.4644192,None,5,1,2025-10-03_16h02.32.470,motorselection,,2025.1.1,59.88375366,2025-10-03 16h02.39.754393 +0530
